Folder: bmcs_beam/notebooks/deflection/deflection_verification/verification_data/Bie20

Note: README.md
# Models of Brittle-Matrix-Composite Beams

[![Binder](https://mybinder.org/badge.svg)](https://mybinder.org/v2/gh/bmcs-group/bmcs_beam/master?urlpath=%2Fapps%2Fbeam_design/mq_profile.ipynb) - Start a simple example

File: FT01.csv
Deflection [mm]; Load [kN]
0; 0
0.089414; 5.62642
0.535605; 29.2667
1.0729; 47.2746
2.06085; 64.148
3.0484; 83.2736
3.94747; 93.3918
5.38709; 103.5
7.09597; 119.234
8.89595; 129.335
10.4257; 139.441
12.4062; 147.287
14.205; 164.145
16.1846; 177.622
17.8951; 184.346
19.514; 198.956
21.4944; 207.927
23.2033; 223.661
24.5526; 234.897
25.9017; 247.259
26.9814; 255.122
27.1634; 244.983
27.0757; 231.471
26.8984; 215.709
26.6318; 195.444
25.8234; 181.945
24.7456; 163.947
23.7574; 148.2
22.5895; 130.204
21.6009; 116.709
20.7921; 105.463
19.8032; 94.2204
18.5441; 81.8566
17.3754; 68.365
16.116; 58.2536
15.3072; 47.0075
14.9489; 35.7529
13.9595; 26.7625
12.9695; 21.1504
11.9787; 20.0429
11.3475; 23.4331
11.4353; 35.8189
11.6133; 48.2029
12.0605; 66.2126
13.0484; 83.0859
14.2172; 96.5775
15.2053; 112.325
16.2846; 122.44
17.4529; 138.183
18.4421; 148.3
19.0707; 159.549
19.969; 174.172
20.597; 188.8
21.1359; 197.799
22.5741; 215.79
23.8329; 229.28
26.4419; 249.501
28.4206; 267.482
30.4; 282.085
32.3793; 296.687
34.8085; 314.659
36.8779; 329.26
38.9476; 342.735
41.0168; 358.462
42.9055; 376.444
45.1549; 392.168
47.1359; 397.761
48.9346; 414.62
51.5438; 433.715
53.4335; 446.067
55.2331; 458.42
56.8529; 468.525
58.2024; 478.635
60.2724; 489.857
62.5225; 502.202
64.682; 516.801
66.1214; 528.036
68.2813; 540.383
70.3506; 556.11
71.7003; 565.093
72.8697; 575.206
74.4897; 584.185
76.019; 596.544
77.9991; 606.642
79.2582; 619.005
80.698; 627.987
82.0473; 639.223
83.5776; 645.951
85.1074; 656.058
86.8177; 663.909
88.3474; 674.015
88.4395; 662.752
89.3388; 671.744
90.958; 685.227

File: FT02.csv
Deflection [mm]; Load [kN]
0; 0.828962
0.498974; 27.3711
1.32687; 62.0764
2.80863; 102.896
3.63093; 123.304
4.77977; 145.748
6.418; 170.224
7.40158; 186.544
8.71488; 213.069
9.86372; 235.513
10.6852; 253.879
11.6712; 276.326
13.1442; 294.678
14.1294; 315.083
15.7676; 339.559
17.2453; 370.166
19.2117; 400.763
20.5282; 435.459
22.3325; 468.102
23.6482; 500.754
24.4753; 533.417
26.2796; 566.06
27.2631; 582.38
28.5717; 596.651
28.5597; 566.014
28.218; 525.171
27.723; 508.841
26.5694; 474.142
25.4126; 431.274
24.2613; 402.703
22.453; 359.847
21.1365; 325.152
19.658; 292.503
18.1786; 257.811
17.3563; 237.403
16.3703; 214.955
14.7289; 182.309
13.4132; 149.656
11.4421; 106.804
9.96591; 80.2823
8.97834; 53.7502
7.66664; 31.3096
6.35893; 19.0814
6.20484; 41.5519
6.70621; 74.2214
7.69538; 104.838
8.68215; 129.328
9.67052; 157.903
10.6605; 190.562
12.1382; 221.169
13.1258; 247.701
14.115; 278.318
15.5927; 308.926
16.7464; 343.624
18.3902; 382.398
19.8711; 421.175
21.677; 457.903
23.1556; 490.552
25.2952; 547.698
26.7706; 572.178
29.5592; 623.183
31.2007; 655.829
32.8445; 694.603
35.3018; 731.317
37.1061; 763.96
38.9112; 798.645
40.8792; 833.327
42.3569; 863.934
43.6686; 886.375
45.144; 910.855
46.783; 937.373
48.751; 972.055
50.5545; 1002.66
52.8481; 1037.33
54.6532; 1072.02
56.7856; 1110.78
58.7528; 1143.42
61.0497; 1186.27
63.507; 1222.98
65.1477; 1253.58
66.6198; 1269.89
68.587; 1302.53
70.8807; 1337.21
73.0099; 1367.8
74.6473; 1390.24
76.1227; 1414.72
77.7585; 1433.06
79.0662; 1445.29
80.8657; 1465.68
81.8477; 1477.92

File: FT03.csv
Deflection [mm]; Load [kN]
0; 0
0.179707; 4.4986
0.533576; 40.528
0.710307; 59.6688
0.978347; 72.0512
1.60695; 83.3006
2.50583; 94.545
4.3959; 104.645
5.65696; 105.747
7.0073; 111.352
8.26694; 120.338
9.07593; 130.458
10.0657; 137.196
11.6855; 147.301
13.4855; 157.402
15.1954; 167.505
16.2746; 177.62
17.7143; 187.728
18.8842; 194.463
20.1441; 202.322
21.3138; 210.183
22.9332; 222.54
24.0129; 230.403
24.8227; 236.018
25.5424; 241.635
26.2621; 247.252
27.1618; 253.992
27.2557; 232.594
27.1687; 215.704
26.6314; 197.696
25.9131; 184.196
24.9249; 168.449
24.0267; 153.826
23.128; 141.455
22.4099; 126.829
21.6009; 116.709
20.4324; 102.091
19.0839; 86.351
17.5552; 70.6139
16.2061; 58.2519
15.0371; 45.8864
14.0484; 33.5176
13.0592; 23.401
12.2494; 17.7856
11.7095; 14.4173
10.8088; 13.3081
10.9853; 33.5751
11.9716; 59.4575
13.1395; 77.4536
14.0382; 89.8241
15.2063; 106.694
15.9252; 116.816
17.0039; 130.309
17.9929; 141.552
18.5316; 151.677
19.4308; 160.669
20.2402; 168.537
21.4991; 182.026
22.3977; 194.397
23.2069; 203.391
24.0163; 211.258
24.4652; 220.259
25.2739; 231.505
25.9922; 245.005
28.0621; 257.354
29.9517; 269.706
31.4808; 283.19
33.3705; 295.542
34.8097; 307.903
36.5192; 320.258
37.958; 334.871
39.9374; 349.473
42.0072; 361.822
42.6378; 361.81