Folder: bmcs_beam/notebooks/experimental_tests/results/carbon_tensile_tests (part 5)

File: F9.txt
Zeit  1 - Standardmessrate [s]	Kraft [kN]	Weg [mm]	DD1 [Prom]	PMX_1 CH 3-2 [µm/m]	PMX_1 CH 3-3 [mm]	PMX_1 CH 3-4 [mm]
0	0,02771	-0,00022	0,00010	-1000000	-1000000	-1000000
2,700	0,02802	0,00032	0,00061	-1000000	-1000000	-1000000
5,400	0,02749	-0,00038	0,00094	-1000000	-1000000	-1000000
8,100	0,02775	-0,00016	0,00131	-1000000	-1000000	-1000000
10,80	0,00823	0,03189	-0,03415	-1000000	-1000000	-1000000
13,50	-0,01949	0,07765	-0,06272	-1000000	-1000000	-1000000
16,20	-0,03899	0,1218	-0,08040	-1000000	-1000000	-1000000
18,90	-0,05403	0,1671	-0,08831	-1000000	-1000000	-1000000
21,60	-0,06211	0,2126	-0,08769	-1000000	-1000000	-1000000
24,30	-0,06994	0,2569	-0,08945	-1000000	-1000000	-1000000
27,00	-0,07783	0,3020	-0,08865	-1000000	-1000000	-1000000
29,70	-0,08686	0,3470	-0,08849	-1000000	-1000000	-1000000
32,40	-0,1003	0,3916	-0,09309	-1000000	-1000000	-1000000
35,10	-0,1152	0,4368	-0,09677	-1000000	-1000000	-1000000
37,80	-0,1278	0,4823	-0,09740	-1000000	-1000000	-1000000
40,50	-0,1436	0,5275	-0,09588	-1000000	-1000000	-1000000
43,20	-0,1557	0,5713	-0,09295	-1000000	-1000000	-1000000
45,90	-0,1668	0,6164	-0,09272	-1000000	-1000000	-1000000
48,60	-0,1862	0,6611	-0,1003	-1000000	-1000000	-1000000
51,30	-0,2073	0,7064	-0,1058	-1000000	-1000000	-1000000
54,00	-0,2321	0,7509	-0,1115	-1000000	-1000000	-1000000
56,70	-0,2431	0,7963	-0,1005	-1000000	-1000000	-1000000
59,40	-0,2464	0,8415	-0,09621	-1000000	-1000000	-1000000
62,10	-0,2577	0,8863	-0,1024	-1000000	-1000000	-1000000
64,80	-0,2598	0,9319	-0,09480	-1000000	-1000000	-1000000
67,50	-0,2699	0,9759	-0,09778	-1000000	-1000000	-1000000
70,20	-0,2751	1,021	-0,08956	-1000000	-1000000	-1000000
72,90	-0,2779	1,066	-0,08291	-1000000	-1000000	-1000000
75,60	-0,2942	1,111	-0,09052	-1000000	-1000000	-1000000
78,30	-0,3103	1,156	-0,1006	-1000000	-1000000	-1000000
81,00	-0,3146	1,202	-0,09951	-1000000	-1000000	-1000000
83,70	-0,3218	1,246	-0,1022	-1000000	-1000000	-1000000
86,40	-0,3504	1,291	-0,1336	-1000000	-1000000	-1000000
89,10	-0,3918	1,335	-0,1615	-1000000	-1000000	-1000000
91,80	-0,3736	1,382	-0,1087	-1000000	-1000000	-1000000
94,50	-0,4500	1,425	-0,1881	-1000000	-1000000	-1000000
97,20	-0,5153	1,471	-0,2186	-1000000	-1000000	-1000000
99,90	-0,5865	1,516	-0,2443	-1000000	-1000000	-1000000
102,60	-0,6561	1,561	-0,2612	-1000000	-1000000	-1000000
105,30	-0,7303	1,606	-0,2757	-1000000	-1000000	-1000000
108,00	-0,8047	1,651	-0,2824	-1000000	-1000000	-1000000
110,70	-0,8893	1,696	-0,2997	-1000000	-1000000	-1000000
113,40	-0,9738	1,742	-0,3096	-1000000	-1000000	-1000000
116,10	-1,063	1,786	-0,3110	-1000000	-1000000	-1000000
118,80	-1,149	1,831	-0,3059	-1000000	-1000000	-1000000
121,50	-1,241	1,877	-0,2943	-1000000	-1000000	-1000000
124,20	-1,336	1,920	-0,2751	-1000000	-1000000	-1000000
126,90	-1,426	1,965	-0,2528	-1000000	-1000000	-1000000
129,60	-1,522	2,010	-0,2416	-1000000	-1000000	-1000000
132,30	-1,617	2,055	-0,2314	-1000000	-1000000	-1000000
135,00	-1,709	2,100	-0,2306	-1000000	-1000000	-1000000
137,70	-1,804	2,145	-0,2291	-1000000	-1000000	-1000000
140,40	-1,904	2,190	-0,2273	-1000000	-1000000	-1000000
143,10	-2,002	2,236	-0,2257	-1000000	-1000000	-1000000
145,80	-2,103	2,280	-0,2243	-1000000	-1000000	-1000000
148,50	-2,202	2,326	-0,2246	-1000000	-1000000	-1000000
151,20	-2,304	2,371	-0,2199	-1000000	-1000000	-1000000
153,90	-2,406	2,416	-0,2153	-1000000	-1000000	-1000000
156,60	-2,508	2,461	-0,2115	-1000000	-1000000	-1000000
159,30	-2,607	2,506	-0,2080	-1000000	-1000000	-1000000
162,00	-2,700	2,551	-0,2076	-1000000	-1000000	-1000000
164,70	-2,800	2,596	-0,2033	-1000000	-1000000	-1000000
167,40	-2,895	2,640	-0,1983	-1000000	-1000000	-1000000
170,10	-2,997	2,686	-0,1972	-1000000	-1000000	-1000000
172,80	-3,101	2,730	-0,1944	-1000000	-1000000	-1000000
175,50	-3,202	2,776	-0,1963	-1000000	-1000000	-1000000
178,20	-3,300	2,821	-0,1984	-1000000	-1000000	-1000000
180,90	-3,404	2,865	-0,1980	-1000000	-1000000	-1000000
183,60	-3,510	2,910	-0,1993	-1000000	-1000000	-1000000
186,30	-3,618	2,955	-0,1996	-1000000	-1000000	-1000000
189,00	-3,720	3,000	-0,1972	-1000000	-1000000	-1000000
191,70	-3,829	3,045	-0,1984	-1000000	-1000000	-1000000
194,40	-3,926	3,090	-0,1857	-1000000	-1000000	-1000000
197,10	-4,036	3,135	-0,1903	-1000000	-1000000	-1000000
199,80	-4,145	3,180	-0,1896	-1000000	-1000000	-1000000
202,50	-4,253	3,225	-0,1913	-1000000	-1000000	-1000000
205,20	-4,365	3,270	-0,1897	-1000000	-1000000	-1000000
207,90	-4,481	3,315	-0,1884	-1000000	-1000000	-1000000
210,60	-4,603	3,359	-0,1867	-1000000	-1000000	-1000000
213,30	-4,722	3,405	-0,1841	-1000000	-1000000	-1000000
216,00	-4,843	3,450	-0,1810	-1000000	-1000000	-1000000
218,70	-4,963	3,495	-0,1793	-1000000	-1000000	-1000000
221,40	-5,089	3,540	-0,1784	-1000000	-1000000	-1000000
224,10	-5,211	3,585	-0,1780	-1000000	-1000000	-1000000
226,80	-5,335	3,630	-0,1789	-1000000	-1000000	-1000000
229,50	-5,457	3,675	-0,1778	-1000000	-1000000	-1000000
232,20	-5,541	3,720	-0,1710	-1000000	-1000000	-1000000
234,90	-5,657	3,764	-0,1809	-1000000	-1000000	-1000000
237,60	-5,779	3,809	-0,1840	-1000000	-1000000	-1000000
240,30	-5,898	3,855	-0,1864	-1000000	-1000000	-1000000
243,00	-6,020	3,900	-0,1848	-1000000	-1000000	-1000000
245,70	-6,145	3,944	-0,1798	-1000000	-1000000	-1000000
248,40	-6,262	3,988	-0,1760	-1000000	-1000000	-1000000
251,10	-6,386	4,034	-0,1699	-1000000	-1000000	-1000000
253,80	-6,494	4,079	-0,1646	-1000000	-1000000	-1000000
256,50	-6,611	4,125	-0,1667	-1000000	-1000000	-1000000
259,20	-6,731	4,170	-0,1700	-1000000	-1000000	-1000000
261,90	-6,843	4,215	-0,1707	-1000000	-1000000	-1000000
264,60	-6,959	4,260	-0,1694	-1000000	-1000000	-1000000
267,30	-7,080	4,306	-0,1734	-1000000	-1000000	-1000000
270,00	-7,197	4,351	-0,1706	-1000000	-1000000	-1000000
272,70	-7,317	4,395	-0,1752	-1000000	-1000000	-1000000
275,40	-7,432	4,440	-0,1779	-1000000	-1000000	-1000000
278,10	-7,545	4,485	-0,1807	-1000000	-1000000	-1000000
280,80	-7,666	4,530	-0,2050	-1000000	-1000000	-1000000
283,50	-7,658	4,575	-0,06586	-1000000	-1000000	-1000000
286,20	-7,767	4,620	-0,1828	-1000000	-1000000	-1000000
288,90	-7,876	4,665	-0,2292	-1000000	-1000000	-1000000
291,60	-7,988	4,710	-0,2253	-1000000	-1000000	-1000000
294,30	-7,694	4,755	-0,08285	-1000000	-1000000	-1000000
297,00	-7,847	4,799	-0,1628	-1000000	-1000000	-1000000
299,70	-7,988	4,845	-0,1542	-1000000	-1000000	-1000000
302,40	-8,128	4,891	-0,1465	-1000000	-1000000	-1000000
305,10	-8,259	4,935	-0,1436	-1000000	-1000000	-1000000
307,80	-8,385	4,980	-0,1430	-1000000	-1000000	-1000000
310,50	-8,517	5,025	-0,1472	-1000000	-1000000	-1000000
313,20	-8,637	5,070	-0,1481	-1000000	-1000000	-1000000
315,90	-8,765	5,115	-0,1453	-1000000	-1000000	-1000000
318,60	-8,889	5,161	-0,1447	-1000000	-1000000	-1000000
321,30	-8,998	5,204	-0,1433	-1000000	-1000000	-1000000
324,00	-9,132	5,250	-0,1515	-1000000	-1000000	-1000000
326,70	-9,255	5,295	-0,1496	-1000000	-1000000	-1000000
329,40	-9,371	5,344	-0,1466	-1000000	-1000000	-1000000
332,10	-9,483	5,389	-0,1362	-1000000	-1000000	-1000000
334,80	-9,604	5,434	-0,1387	-1000000	-1000000	-1000000
337,50	-9,719	5,478	-0,1377	-1000000	-1000000	-1000000
340,20	-9,831	5,524	-0,1354	-1000000	-1000000	-1000000
342,90	-9,946	5,568	-0,1327	-1000000	-1000000	-1000000
345,60	-10,06	5,615	-0,1335	-1000000	-1000000	-1000000
348,30	-10,18	5,659	-0,1322	-1000000	-1000000	-1000000
351,00	-10,29	5,704	-0,1361	-1000000	-1000000	-1000000
353,70	-10,40	5,749	-0,1329	-1000000	-1000000	-1000000
356,40	-10,52	5,794	-0,1342	-1000000	-1000000	-1000000
359,10	-10,60	5,828	-0,1097	-1000000	-1000000	-1000000
361,80	-10,58	5,828	-0,03816	-1000000	-1000000	-1000000
364,50	-10,56	5,828	0,3267	-1000000	-1000000	-1000000
367,20	-10,55	5,828	-0,03890	-1000000	-1000000	-1000000
369,90	-10,54	5,828	2,858	-1000000	-1000000	-1000000
372,60	-10,53	5,828	-0,2035	-1000000	-1000000	-1000000
375,30	-10,51	5,828	-0,2035	-1000000	-1000000	-1000000
378,00	-10,51	5,832	-0,2035	-1000000	-1000000	-1000000
380,70	-10,66	5,876	-0,2036	-1000000	-1000000	-1000000
383,40	-10,66	5,921	-0,2037	-1000000	-1000000	-1000000
386,10	-10,81	5,967	-0,2038	-1000000	-1000000	-1000000
388,80	-10,95	6,012	-0,2038	-1000000	-1000000	-1000000
391,50	-11,09	6,056	-0,2038	-1000000	-1000000	-1000000
394,20	-11,22	6,102	-0,2040	-1000000	-1000000	-1000000
396,90	-11,33	6,146	-0,2040	-1000000	-1000000	-1000000
399,60	-11,46	6,192	-0,2039	-1000000	-1000000	-1000000
402,30	-11,58	6,236	-0,2040	-1000000	-1000000	-1000000
405,00	-11,70	6,282	-0,2041	-1000000	-1000000	-1000000
407,70	-11,81	6,327	-0,2042	-1000000	-1000000	-1000000
410,40	-11,93	6,372	-0,2042	-1000000	-1000000	-1000000
413,10	-12,04	6,416	-0,2042	-1000000	-1000000	-1000000
415,80	-12,16	6,462	-0,2042	-1000000	-1000000	-1000000
418,50	-12,27	6,506	-0,2043	-1000000	-1000000	-1000000
421,20	-12,39	6,551	-0,2044	-1000000	-1000000	-1000000
423,90	-12,50	6,597	-0,2044	-1000000	-1000000	-1000000
426,60	-12,62	6,641	-0,2044	-1000000	-1000000	-1000000
429,30	-12,72	6,686	-0,2046	-1000000	-1000000	-1000000
432,00	-12,84	6,731	-0,2046	-1000000	-1000000	-1000000
434,70	-12,95	6,776	-0,2046	-1000000	-1000000	-1000000
437,40	-13,06	6,821	-0,2046	-1000000	-1000000	-1000000
440,10	-13,17	6,866	-0,2047	-1000000	-1000000	-1000000
442,80	-13,28	6,911	-0,2047	-1000000	-1000000	-1000000
445,50	-13,39	6,956	-0,2048	-1000000	-1000000	-1000000
448,20	-13,51	7,001	-0,2047	-1000000	-1000000	-1000000
450,90	-13,63	7,045	-0,2048	-1000000	-1000000	-1000000
453,60	-13,74	7,090	-0,2047	-1000000	-1000000	-1000000
456,30	-13,85	7,136	-0,2049	-1000000	-1000000	-1000000
459,00	-13,96	7,180	-0,2049	-1000000	-1000000	-1000000
461,70	-14,07	7,225	-0,2050	-1000000	-1000000	-1000000
464,40	-14,18	7,269	-0,2050	-1000000	-1000000	-1000000
467,10	-14,29	7,314	-0,2050	-1000000	-1000000	-1000000
469,80	-14,40	7,360	-0,2050	-1000000	-1000000	-1000000
472,50	-14,49	7,404	-0,2050	-1000000	-1000000	-1000000
475,20	-0,00887	7,448	-0,1906	-1000000	-1000000	-1000000
477,90	-0,00151	7,493	-0,1901	-1000000	-1000000	-1000000
480,60	-0,00495	7,538	-0,1899	-1000000	-1000000	-1000000
481,90	-0,00549	7,560	-0,1899	-1000000	-1000000	-1000000

File: F10.txt
Zeit  1 - Standardmessrate [s]	Kraft [kN]	Weg [mm]	DD1 [Prom]	PMX_1 CH 3-2 [µm/m]	PMX_1 CH 3-3 [mm]	PMX_1 CH 3-4 [mm]
0	-0,06229	-4,698	-0,00036	-1000000	-1000000	-1000000
1,600	-0,06187	-4,702	-0,00099	-1000000	-1000000	-1000000
3,200	-0,06216	-4,700	-0,00243	-1000000	-1000000	-1000000
4,800	-0,06322	-4,672	-0,00500	-1000000	-1000000	-1000000
6,400	-0,06642	-4,645	-0,00707	-1000000	-1000000	-1000000
8,000	-0,06653	-4,619	-0,00887	-1000000	-1000000	-1000000
9,600	-0,06640	-4,592	-0,01062	-1000000	-1000000	-1000000
11,20	-0,06658	-4,566	-0,01241	-1000000	-1000000	-1000000
12,80	-0,06786	-4,539	-0,01431	-1000000	-1000000	-1000000
14,40	-0,06961	-4,513	-0,01588	-1000000	-1000000	-1000000
16,00	-0,07002	-4,485	-0,01754	-1000000	-1000000	-1000000
17,60	-0,07012	-4,459	-0,01903	-1000000	-1000000	-1000000
19,20	-0,07046	-4,432	-0,02061	-1000000	-1000000	-1000000
20,80	-0,07107	-4,406	-0,02220	-1000000	-1000000	-1000000
22,40	-0,07397	-4,379	-0,02359	-1000000	-1000000	-1000000
24,00	-0,07488	-4,353	-0,02496	-1000000	-1000000	-1000000
25,60	-0,07469	-4,326	-0,02639	-1000000	-1000000	-1000000
27,20	-0,07443	-4,298	-0,02800	-1000000	-1000000	-1000000
28,80	-0,07523	-4,273	-0,02936	-1000000	-1000000	-1000000
30,40	-0,07629	-4,245	-0,03073	-1000000	-1000000	-1000000
32,00	-0,07731	-4,219	-0,03219	-1000000	-1000000	-1000000
33,60	-0,07839	-4,192	-0,03350	-1000000	-1000000	-1000000
35,20	-0,07819	-4,165	-0,03474	-1000000	-1000000	-1000000
36,80	-0,07810	-4,139	-0,03601	-1000000	-1000000	-1000000
38,40	-0,07818	-4,113	-0,03741	-1000000	-1000000	-1000000
40,00	-0,07862	-4,085	-0,03871	-1000000	-1000000	-1000000
41,60	-0,08043	-4,059	-0,03999	-1000000	-1000000	-1000000
43,20	-0,08172	-4,034	-0,04123	-1000000	-1000000	-1000000
44,80	-0,08232	-4,006	-0,04246	-1000000	-1000000	-1000000
46,40	-0,08233	-3,980	-0,04390	-1000000	-1000000	-1000000
48,00	-0,08270	-3,953	-0,04501	-1000000	-1000000	-1000000
49,60	-0,08304	-3,926	-0,04610	-1000000	-1000000	-1000000
51,20	-0,08283	-3,899	-0,04709	-1000000	-1000000	-1000000
52,80	-0,08292	-3,873	-0,04804	-1000000	-1000000	-1000000
54,40	-0,08433	-3,846	-0,04918	-1000000	-1000000	-1000000
56,00	-0,08622	-3,820	-0,05005	-1000000	-1000000	-1000000
57,60	-0,08670	-3,793	-0,05105	-1000000	-1000000	-1000000
59,20	-0,08661	-3,766	-0,05194	-1000000	-1000000	-1000000
60,80	-0,08641	-3,740	-0,05284	-1000000	-1000000	-1000000
62,40	-0,08698	-3,713	-0,05365	-1000000	-1000000	-1000000
64,00	-0,08666	-3,686	-0,05461	-1000000	-1000000	-1000000
65,60	-0,08671	-3,659	-0,05536	-1000000	-1000000	-1000000
67,20	-0,08640	-3,632	-0,05618	-1000000	-1000000	-1000000
68,80	-0,08634	-3,606	-0,05698	-1000000	-1000000	-1000000
70,40	-0,08731	-3,579	-0,05799	-1000000	-1000000	-1000000
72,00	-0,08718	-3,553	-0,05874	-1000000	-1000000	-1000000
73,60	-0,08765	-3,526	-0,05935	-1000000	-1000000	-1000000
75,20	-0,08777	-3,500	-0,06004	-1000000	-1000000	-1000000
76,80	-0,08853	-3,473	-0,06083	-1000000	-1000000	-1000000
78,40	-0,08892	-3,447	-0,06148	-1000000	-1000000	-1000000
80,00	-0,08999	-3,420	-0,06197	-1000000	-1000000	-1000000
81,60	-0,08937	-3,394	-0,06247	-1000000	-1000000	-1000000
83,20	-0,08860	-3,367	-0,06287	-1000000	-1000000	-1000000
84,80	-0,08948	-3,340	-0,06331	-1000000	-1000000	-1000000
86,40	-0,08835	-3,314	-0,06380	-1000000	-1000000	-1000000
88,00	-0,08925	-3,286	-0,06425	-1000000	-1000000	-1000000
89,60	-0,08806	-3,260	-0,06442	-1000000	-1000000	-1000000
91,20	-0,08796	-3,233	-0,06481	-1000000	-1000000	-1000000
92,80	-0,08788	-3,207	-0,06537	-1000000	-1000000	-1000000
94,40	-0,08822	-3,180	-0,06573	-1000000	-1000000	-1000000
96,00	-0,08898	-3,154	-0,06623	-1000000	-1000000	-1000000
97,60	-0,08810	-3,126	-0,06669	-1000000	-1000000	-1000000
99,20	-0,08870	-3,100	-0,06713	-1000000	-1000000	-1000000
100,80	-0,08936	-3,072	-0,06757	-1000000	-1000000	-1000000
102,40	-0,08846	-3,046	-0,06808	-1000000	-1000000	-1000000
104,00	-0,08817	-3,020	-0,06845	-1000000	-1000000	-1000000
105,60	-0,08974	-2,993	-0,06887	-1000000	-1000000	-1000000
107,20	-0,08911	-2,966	-0,06977	-1000000	-1000000	-1000000
108,80	-0,08958	-2,939	-0,07016	-1000000	-1000000	-1000000
110,40	-0,08861	-2,913	-0,07038	-1000000	-1000000	-1000000
112,00	-0,08821	-2,886	-0,07082	-1000000	-1000000	-1000000
113,60	-0,08936	-2,860	-0,07115	-1000000	-1000000	-1000000
115,20	-0,08939	-2,833	-0,07140	-1000000	-1000000	-1000000
116,80	-0,08888	-2,808	-0,07188	-1000000	-1000000	-1000000
118,40	-0,08876	-2,781	-0,07206	-1000000	-1000000	-1000000
120,00	-0,08936	-2,754	-0,07261	-1000000	-1000000	-1000000
121,60	-0,08916	-2,727	-0,07281	-1000000	-1000000	-1000000
123,20	-0,08821	-2,700	-0,07310	-1000000	-1000000	-1000000
124,80	-0,08896	-2,674	-0,07341	-1000000	-1000000	-1000000
126,40	-0,08764	-2,647	-0,07377	-1000000	-1000000	-1000000
128,00	-0,08846	-2,620	-0,07415	-1000000	-1000000	-1000000
129,60	-0,08841	-2,594	-0,07440	-1000000	-1000000	-1000000
131,20	-0,08719	-2,567	-0,07471	-1000000	-1000000	-1000000
132,80	-0,08782	-2,540	-0,07511	-1000000	-1000000	-1000000
134,40	-0,08772	-2,514	-0,07521	-1000000	-1000000	-1000000
136,00	-0,08756	-2,486	-0,07565	-1000000	-1000000	-1000000
137,60	-0,08420	-2,460	-0,07105	-1000000	-1000000	-1000000
139,20	-0,08197	-2,434	-0,06870	-1000000	-1000000	-1000000
140,80	-0,08168	-2,407	-0,06889	-1000000	-1000000	-1000000
142,40	-0,07945	-2,380	-0,06935	-1000000	-1000000	-1000000
144,00	-0,07872	-2,354	-0,06975	-1000000	-1000000	-1000000
145,60	-0,07849	-2,327	-0,06997	-1000000	-1000000	-1000000
147,20	-0,07853	-2,300	-0,07067	-1000000	-1000000	-1000000
148,80	-0,07847	-2,274	-0,07093	-1000000	-1000000	-1000000
150,40	-0,07873	-2,247	-0,07123	-1000000	-1000000	-1000000
152,00	-0,07857	-2,220	-0,07146	-1000000	-1000000	-1000000
153,60	-0,07898	-2,194	-0,07185	-1000000	-1000000	-1000000
155,20	-0,07860	-2,167	-0,07205	-1000000	-1000000	-1000000
156,80	-0,07829	-2,141	-0,07227	-1000000	-1000000	-1000000
158,40	-0,07850	-2,114	-0,07253	-1000000	-1000000	-1000000
160,00	-0,07869	-2,087	-0,07279	-1000000	-1000000	-1000000
161,60	-0,07874	-2,061	-0,07325	-1000000	-1000000	-1000000
163,20	-0,07890	-2,034	-0,07350	-1000000	-1000000	-1000000
164,80	-0,07828	-2,008	-0,07364	-1000000	-1000000	-1000000
166,40	-0,07699	-1,981	-0,07398	-1000000	-1000000	-1000000
168,00	-0,07710	-1,954	-0,07426	-1000000	-1000000	-1000000
169,60	-0,07693	-1,927	-0,07453	-1000000	-1000000	-1000000
171,20	-0,07673	-1,902	-0,07486	-1000000	-1000000	-1000000
172,80	-0,07484	-1,874	-0,07519	-1000000	-1000000	-1000000
174,40	-0,07590	-1,847	-0,07554	-1000000	-1000000	-1000000
176,00	-0,07554	-1,821	-0,07599	-1000000	-1000000	-1000000
177,60	-0,07441	-1,795	-0,07636	-1000000	-1000000	-1000000
179,20	-0,07522	-1,767	-0,07658	-1000000	-1000000	-1000000
180,80	-0,07570	-1,741	-0,07693	-1000000	-1000000	-1000000
182,40	-0,07574	-1,714	-0,07722	-1000000	-1000000	-1000000
184,00	-0,07492	-1,687	-0,07779	-1000000	-1000000	-1000000
185,60	-0,07508	-1,661	-0,07793	-1000000	-1000000	-1000000
187,20	-0,07496	-1,634	-0,07812	-1000000	-1000000	-1000000
188,80	-0,07501	-1,608	-0,07846	-1000000	-1000000	-1000000
190,40	-0,07518	-1,581	-0,07876	-1000000	-1000000	-1000000
192,00	-0,07531	-1,555	-0,07913	-1000000	-1000000	-1000000
193,60	-0,07486	-1,528	-0,07922	-1000000	-1000000	-1000000
195,20	-0,07495	-1,501	-0,07954	-1000000	-1000000	-1000000
196,80	-0,07519	-1,475	-0,07993	-1000000	-1000000	-1000000
198,40	-0,07524	-1,447	-0,08027	-1000000	-1000000	-1000000
200,00	-0,07539	-1,422	-0,08043	-1000000	-1000000	-1000000
201,60	-0,07529	-1,394	-0,08073	-1000000	-1000000	-1000000
203,20	-0,07576	-1,368	-0,08100	-1000000	-1000000	-1000000
204,80	-0,07532	-1,341	-0,08125	-1000000	-1000000	-1000000
206,40	-0,07529	-1,315	-0,08160	-1000000	-1000000	-1000000
208,00	-0,07527	-1,288	-0,08198	-1000000	-1000000	-1000000
209,60	-0,07524	-1,261	-0,08224	-1000000	-1000000	-1000000
211,20	-0,07539	-1,235	-0,08236	-1000000	-1000000	-1000000
212,80	-0,07528	-1,208	-0,08260	-1000000	-1000000	-1000000
214,40	-0,07515	-1,182	-0,08297	-1000000	-1000000	-1000000
216,00	-0,07524	-1,154	-0,08314	-1000000	-1000000	-1000000
217,60	-0,07485	-1,128	-0,08346	-1000000	-1000000	-1000000
219,20	-0,07403	-1,101	-0,08403	-1000000	-1000000	-1000000
220,80	-0,07412	-1,075	-0,08432	-1000000	-1000000	-1000000
222,40	-0,07422	-1,048	-0,08440	-1000000	-1000000	-1000000
224,00	-0,07414	-1,021	-0,08477	-1000000	-1000000	-1000000
225,60	-0,07319	-0,9946	-0,08504	-1000000	-1000000	-1000000
227,20	-0,07283	-0,9681	-0,08531	-1000000	-1000000	-1000000
228,80	-0,07228	-0,9414	-0,08549	-1000000	-1000000	-1000000
230,40	-0,07095	-0,9146	-0,08571	-1000000	-1000000	-1000000
232,00	-0,07055	-0,8882	-0,08591	-1000000	-1000000	-1000000
233,60	-0,07080	-0,8611	-0,08609	-1000000	-1000000	-1000000
235,20	-0,07113	-0,8351	-0,08628	-1000000	-1000000	-1000000
236,80	-0,07073	-0,8082	-0,08641	-1000000	-1000000	-1000000
238,40	-0,07039	-0,7817	-0,08689	-1000000	-1000000	-1000000
240,00	-0,07073	-0,7545	-0,08696	-1000000	-1000000	-1000000
241,60	-0,07058	-0,7292	-0,08725	-1000000	-1000000	-1000000
243,20	-0,07075	-0,7022	-0,08749	-1000000	-1000000	-1000000
244,80	-0,07089	-0,6751	-0,08783	-1000000	-1000000	-1000000
246,40	-0,07069	-0,6489	-0,08772	-1000000	-1000000	-1000000
248,00	-0,07065	-0,6215	-0,08806	-1000000	-1000000	-1000000
249,60	-0,07043	-0,5958	-0,08840	-1000000	-1000000	-1000000
251,20	-0,07042	-0,5686	-0,08869	-1000000	-1000000	-1000000
252,80	-0,07064	-0,5423	-0,08888	-1000000	-1000000	-1000000
254,40	-0,07018	-0,5150	-0,08926	-1000000	-1000000	-1000000
256,00	-0,06634	-0,5067	-0,08810	-1000000	-1000000	-1000000
257,60	-0,06669	-0,5062	-0,08730	-1000000	-1000000	-1000000
259,20	-0,06640	-0,5062	-0,08688	-1000000	-1000000	-1000000
260,80	-0,06647	-0,5065	-0,08688	-1000000	-1000000	-1000000
262,00	-0,06323	-0,5063	-0,08683	-1000000	-1000000	-1000000