Folder: bmcs_beam/notebooks/experimental_tests/results/carbon_tensile_tests (part 3)

File: F5.txt
Zeit  1 - Standardmessrate [s]	Kraft [kN]	Weg [mm]	DD1 [Prom]	PMX_1 CH 3-2 [micro_m/m]	PMX_1 CH 3-3 [mm]	PMX_1 CH 3-4 [mm]
0	-0,1961	-0,00024	0	-1000000	-1000000	-1000000
2,2	-0,1959	0,00015	0	-1000000	-1000000	-1000000
4,4	-0,1962	-0,00017	0	-1000000	-1000000	-1000000
6,6	-0,2309	0,03103	-0,04569	-1000000	-1000000	-1000000
8,8	-0,2332	0,03213	-0,04608	-1000000	-1000000	-1000000
11	-0,2312	-6,757	-0,04565	-1000000	-1000000	-1000000
13,2	-0,2319	-6,75	-0,04771	-1000000	-1000000	-1000000
15,4	-0,2358	-6,713	-0,04908	-1000000	-1000000	-1000000
17,6	-0,244	-6,676	-0,05897	-1000000	-1000000	-1000000
19,8	-0,2497	-6,639	-0,06405	-1000000	-1000000	-1000000
22	-0,253	-6,603	-0,0675	-1000000	-1000000	-1000000
24,2	-0,2614	-6,566	-0,08068	-1000000	-1000000	-1000000
26,4	-0,2633	-6,529	-0,08226	-1000000	-1000000	-1000000
28,6	-0,2658	-6,493	-0,08671	-1000000	-1000000	-1000000
30,8	-0,2742	-6,456	-0,09894	-1000000	-1000000	-1000000
33	-0,2921	-6,42	-0,1213	-1000000	-1000000	-1000000
35,2	-0,3096	-6,383	-0,1444	-1000000	-1000000	-1000000
37,4	-0,3231	-6,346	-0,1641	-1000000	-1000000	-1000000
39,6	-0,3314	-6,31	-0,1735	-1000000	-1000000	-1000000
41,8	-0,345	-6,273	-0,1906	-1000000	-1000000	-1000000
44	-0,3856	-6,237	-0,2438	-1000000	-1000000	-1000000
46,2	-0,4149	-6,2	-0,281	-1000000	-1000000	-1000000
48,4	-0,4587	-6,163	-0,3346	-1000000	-1000000	-1000000
50,6	-0,4286	-6,126	-0,295	-1000000	-1000000	-1000000
52,8	-0,5037	-6,09	-0,3878	-1000000	-1000000	-1000000
55	-0,5695	-6,053	-0,4694	-1000000	-1000000	-1000000
57,2	-0,6359	-6,017	-0,549	-1000000	-1000000	-1000000
59,4	-0,706	-5,98	-0,6348	-1000000	-1000000	-1000000
61,6	-0,7715	-5,943	-0,713	-1000000	-1000000	-1000000
63,8	-0,8362	-5,907	-0,7906	-1000000	-1000000	-1000000
66	-0,8766	-5,87	-0,8377	-1000000	-1000000	-1000000
68,2	-0,9303	-5,833	-0,9033	-1000000	-1000000	-1000000
70,4	-0,9865	-5,797	-0,9689	-1000000	-1000000	-1000000
72,6	-1,046	-5,761	-1,041	-1000000	-1000000	-1000000
74,8	-1,111	-5,724	-1,116	-1000000	-1000000	-1000000
77	-1,173	-5,687	-1,188	-1000000	-1000000	-1000000
79,2	-1,241	-5,65	-1,269	-1000000	-1000000	-1000000
81,4	-1,307	-5,614	-1,348	-1000000	-1000000	-1000000
83,6	-1,376	-5,578	-1,428	-1000000	-1000000	-1000000
85,8	-1,443	-5,541	-1,507	-1000000	-1000000	-1000000
88	-1,516	-5,504	-1,592	-1000000	-1000000	-1000000
90,2	-1,581	-5,467	-1,668	-1000000	-1000000	-1000000
92,4	-1,655	-5,431	-1,754	-1000000	-1000000	-1000000
94,6	-1,729	-5,394	-1,84	-1000000	-1000000	-1000000
96,8	-1,8	-5,358	-1,924	-1000000	-1000000	-1000000
99	-1,874	-5,321	-2,008	-1000000	-1000000	-1000000
101,2	-1,95	-5,284	-2,096	-1000000	-1000000	-1000000
103,4	-2,022	-5,248	-2,181	-1000000	-1000000	-1000000
105,6	-2,098	-5,211	-2,269	-1000000	-1000000	-1000000
107,8	-2,175	-5,174	-2,358	-1000000	-1000000	-1000000
110	-2,249	-5,137	-2,443	-1000000	-1000000	-1000000
112,2	-2,325	-5,101	-2,531	-1000000	-1000000	-1000000
114,4	-2,404	-5,064	-2,621	-1000000	-1000000	-1000000
116,6	-2,482	-5,027	-2,711	-1000000	-1000000	-1000000
118,8	-2,561	-4,99	-2,8	-1000000	-1000000	-1000000
121	-2,641	-4,953	-2,89	-1000000	-1000000	-1000000
123,2	-2,72	-4,917	-2,98	-1000000	-1000000	-1000000
125,4	-2,801	-4,88	-3,072	-1000000	-1000000	-1000000
127,6	-2,882	-4,845	-3,163	-1000000	-1000000	-1000000
129,8	-2,965	-4,808	-3,256	-1000000	-1000000	-1000000
132	-3,048	-4,77	-3,35	-1000000	-1000000	-1000000
134,2	-3,131	-4,734	-3,444	-1000000	-1000000	-1000000
136,4	-3,216	-4,697	-3,54	-1000000	-1000000	-1000000
138,6	-3,3	-4,66	-3,635	-1000000	-1000000	-1000000
140,8	-3,384	-4,624	-3,73	-1000000	-1000000	-1000000
143	-3,471	-4,587	-3,828	-1000000	-1000000	-1000000
145,2	-3,557	-4,55	-3,924	-1000000	-1000000	-1000000
147,4	-3,644	-4,515	-4,022	-1000000	-1000000	-1000000
149,6	-3,732	-4,477	-4,12	-1000000	-1000000	-1000000
151,8	-3,818	-4,44	-4,217	-1000000	-1000000	-1000000
154	-3,865	-4,404	-4,306	-1000000	-1000000	-1000000
156,2	-3,957	-4,367	-4,406	-1000000	-1000000	-1000000
158,4	-4,045	-4,33	-4,504	-1000000	-1000000	-1000000
160,6	-4,134	-4,294	-4,603	-1000000	-1000000	-1000000
162,8	-4,225	-4,258	-4,703	-1000000	-1000000	-1000000
165	-4,314	-4,221	-4,802	-1000000	-1000000	-1000000
167,2	-4,406	-4,185	-4,903	-1000000	-1000000	-1000000
169,4	-4,497	-4,147	-5,002	-1000000	-1000000	-1000000
171,6	-4,591	-4,111	-5,1	-1000000	-1000000	-1000000
173,8	-4,684	-4,074	-5,202	-1000000	-1000000	-1000000
176	-4,779	-4,038	-5,306	-1000000	-1000000	-1000000
178,2	-4,877	-4,001	-5,412	-1000000	-1000000	-1000000
180,4	-4,975	-3,964	-5,519	-1000000	-1000000	-1000000
182,6	-5,074	-3,928	-5,626	-1000000	-1000000	-1000000
184,8	-5,174	-3,892	-5,735	-1000000	-1000000	-1000000
187	-5,273	-3,855	-5,842	-1000000	-1000000	-1000000
189,2	-5,374	-3,819	-5,951	-1000000	-1000000	-1000000
191,4	-5,476	-3,781	-6,06	-1000000	-1000000	-1000000
193,6	-5,576	-3,745	-6,168	-1000000	-1000000	-1000000
195,8	-5,678	-3,708	-6,277	-1000000	-1000000	-1000000
198	-5,78	-3,672	-6,387	-1000000	-1000000	-1000000
200,2	-5,882	-3,635	-6,496	-1000000	-1000000	-1000000
202,4	-5,985	-3,599	-6,605	-1000000	-1000000	-1000000
204,6	-6,087	-3,562	-6,714	-1000000	-1000000	-1000000
206,8	-6,189	-3,525	-6,823	-1000000	-1000000	-1000000
209	-6,292	-3,489	-6,933	-1000000	-1000000	-1000000
211,2	-6,394	-3,452	-7,041	-1000000	-1000000	-1000000
213,4	-6,498	-3,415	-7,151	-1000000	-1000000	-1000000
215,6	-6,6	-3,378	-7,259	-1000000	-1000000	-1000000
217,8	-6,702	-3,342	-7,367	-1000000	-1000000	-1000000
220	-6,805	-3,305	-7,476	-1000000	-1000000	-1000000
222,2	-6,908	-3,268	-7,584	-1000000	-1000000	-1000000
224,4	-7,011	-3,232	-7,692	-1000000	-1000000	-1000000
226,6	-7,114	-3,195	-7,8	-1000000	-1000000	-1000000
228,8	-7,203	-3,159	-7,893	-1000000	-1000000	-1000000
231	-7,303	-3,122	-7,997	-1000000	-1000000	-1000000
233,2	-7,405	-3,085	-8,103	-1000000	-1000000	-1000000
235,4	-7,506	-3,048	-8,209	-1000000	-1000000	-1000000
237,6	-7,609	-3,011	-8,316	-1000000	-1000000	-1000000
239,8	-7,709	-2,975	-8,419	-1000000	-1000000	-1000000
242	-7,809	-2,938	-8,523	-1000000	-1000000	-1000000
244,2	-7,911	-2,902	-8,629	-1000000	-1000000	-1000000
246,4	-8,013	-2,865	-8,734	-1000000	-1000000	-1000000
248,6	-8,113	-2,828	-8,838	-1000000	-1000000	-1000000
250,8	-8,215	-2,792	-8,942	-1000000	-1000000	-1000000
253	-8,314	-2,756	-9,046	-1000000	-1000000	-1000000
255,2	-8,414	-2,719	-9,148	-1000000	-1000000	-1000000
257,4	-8,506	-2,682	-9,244	-1000000	-1000000	-1000000
259,6	-8,603	-2,645	-9,342	-1000000	-1000000	-1000000
261,8	-8,699	-2,608	-9,44	-1000000	-1000000	-1000000
264	-8,727	-2,591	-9,468	-1000000	-1000000	-1000000
266,2	-8,704	-2,592	-9,417	-1000000	-1000000	-1000000
268,4	-8,687	-2,592	-8,585	-1000000	-1000000	-1000000
270,6	-8,67	-2,593	-8,188	-1000000	-1000000	-1000000
272,8	-8,654	-2,593	-0,76015	-1000000	-1000000	-1000000
275	-8,638	-2,592	-0,4196	-1000000	-1000000	-1000000
277,2	-8,62	-2,593	-2,229	-1000000	-1000000	-1000000
279,4	-8,604	-2,592	-2,529	-1000000	-1000000	-1000000
281,6	-8,593	-2,592	-2,529	-1000000	-1000000	-1000000
283,8	-8,705	-2,556	-2,529	-1000000	-1000000	-1000000
286	-8,817	-2,52	-2,529	-1000000	-1000000	-1000000
288,2	-8,923	-2,483	-2,529	-1000000	-1000000	-1000000
290,4	-9,03	-2,446	-2,529	-1000000	-1000000	-1000000
292,6	-9,138	-2,409	-2,53	-1000000	-1000000	-1000000
294,8	-9,24	-2,372	-2,53	-1000000	-1000000	-1000000
297	-9,342	-2,336	-2,53	-1000000	-1000000	-1000000
299,2	-9,443	-2,299	-2,53	-1000000	-1000000	-1000000
301,4	-9,544	-2,262	-2,53	-1000000	-1000000	-1000000
303,6	-9,622	-2,226	-2,53	-1000000	-1000000	-1000000
305,8	-9,678	-2,189	-2,53	-1000000	-1000000	-1000000
308	-9,762	-2,152	-2,53	-1000000	-1000000	-1000000
310,2	-9,855	-2,116	-2,53	-1000000	-1000000	-1000000
312,4	-9,956	-2,079	-2,53	-1000000	-1000000	-1000000
314,6	-10,05	-2,043	-2,53	-1000000	-1000000	-1000000
316,8	-10,15	-2,006	-2,53	-1000000	-1000000	-1000000
319	-10,25	-1,97	-2,53	-1000000	-1000000	-1000000
321,2	-10,35	-1,933	-2,53	-1000000	-1000000	-1000000
323,4	-10,43	-1,896	-2,53	-1000000	-1000000	-1000000
325,6	-10,53	-1,859	-2,53	-1000000	-1000000	-1000000
327,8	-10,61	-1,823	-2,53	-1000000	-1000000	-1000000
330	-10,7	-1,786	-2,53	-1000000	-1000000	-1000000
332,2	-10,8	-1,749	-2,53	-1000000	-1000000	-1000000
334,4	-10,9	-1,713	-2,53	-1000000	-1000000	-1000000
336,6	-11	-1,676	-2,53	-1000000	-1000000	-1000000
338,8	-11,09	-1,64	-2,53	-1000000	-1000000	-1000000
341	-11,2	-1,603	-2,53	-1000000	-1000000	-1000000
343,2	-11,3	-1,566	-2,53	-1000000	-1000000	-1000000
345,4	-11,39	-1,529	-2,53	-1000000	-1000000	-1000000
347,6	-11,49	-1,493	-2,53	-1000000	-1000000	-1000000
349,8	-11,58	-1,456	-2,53	-1000000	-1000000	-1000000
352	-11,68	-1,419	-2,53	-1000000	-1000000	-1000000
354,2	-11,77	-1,378	-2,53	-1000000	-1000000	-1000000
356,4	-11,86	-1,342	-2,53	-1000000	-1000000	-1000000
358,6	-11,96	-1,306	-2,53	-1000000	-1000000	-1000000
360,8	-12,05	-1,27	-2,53	-1000000	-1000000	-1000000
363	-12,15	-1,233	-2,53	-1000000	-1000000	-1000000
365,2	-12,24	-1,196	-2,53	-1000000	-1000000	-1000000
367,4	-12,33	-1,159	-2,53	-1000000	-1000000	-1000000
369,6	-12,4	-1,123	-2,53	-1000000	-1000000	-1000000
371,8	-12,48	-1,085	-2,53	-1000000	-1000000	-1000000
374	-12,58	-1,049	-2,53	-1000000	-1000000	-1000000
376,2	-12,66	-1,012	-2,53	-1000000	-1000000	-1000000
378,4	-12,75	-0,9749	-2,53	-1000000	-1000000	-1000000
380,6	-12,83	-0,9388	-2,53	-1000000	-1000000	-1000000
382,8	-12,9	-0,9018	-2,53	-1000000	-1000000	-1000000
385	-0,00036	-0,8646	-2,447	-1000000	-1000000	-1000000
387,2	-0,00394	-0,828	-2,447	-1000000	-1000000	-1000000
389,4	-0,00533	-0,7915	-2,447	-1000000	-1000000	-1000000
391,6	-0,00598	-0,7549	-2,447	-1000000	-1000000	-1000000
393,5	-0,00639	-0,7231	-2,447	-1000000	-1000000	-1000000

File: F6.txt
Zeit  1 - Standardmessrate [s]	Kraft [kN]	Weg [mm]	DD1 [Prom]	PMX_1 CH 3-2 [µm/m]	PMX_1 CH 3-3 [mm]	PMX_1 CH 3-4 [mm]
0	-0,2003	0,00040	-0,00280	-1000000	-1000000	-1000000
2,600	-0,2004	0,00026	-0,01990	-1000000	-1000000	-1000000
5,200	-0,2022	0,00691	-0,03733	-1000000	-1000000	-1000000
7,800	-0,2357	0,05058	-0,08631	-1000000	-1000000	-1000000
10,40	-0,2393	0,09354	-0,09472	-1000000	-1000000	-1000000
13,00	-0,2432	0,1375	-0,1073	-1000000	-1000000	-1000000
15,60	-0,2481	0,1810	-0,1250	-1000000	-1000000	-1000000
18,20	-0,2526	0,2241	-0,1460	-1000000	-1000000	-1000000
20,80	-0,2503	0,2672	-0,1588	-1000000	-1000000	-1000000
23,40	-0,2599	0,3112	-0,1825	-1000000	-1000000	-1000000
26,00	-0,2650	0,3540	-0,1974	-1000000	-1000000	-1000000
28,60	-0,2687	0,3970	-0,2066	-1000000	-1000000	-1000000
31,20	-0,2761	0,4406	-0,2213	-1000000	-1000000	-1000000
33,80	-0,2977	0,4836	-0,2518	-1000000	-1000000	-1000000
36,40	-0,3147	0,5273	-0,2739	-1000000	-1000000	-1000000
39,00	-0,3257	0,5713	-0,2851	-1000000	-1000000	-1000000
41,60	-0,3308	0,6141	-0,2887	-1000000	-1000000	-1000000
44,20	-0,3383	0,6573	-0,2961	-1000000	-1000000	-1000000
46,80	-0,3742	0,7007	-0,3387	-1000000	-1000000	-1000000
49,40	-0,4077	0,7435	-0,3758	-1000000	-1000000	-1000000
52,00	-0,4549	0,7877	-0,4254	-1000000	-1000000	-1000000
54,60	-0,4638	0,8300	-0,4285	-1000000	-1000000	-1000000
57,20	-0,5273	0,8737	-0,4989	-1000000	-1000000	-1000000
59,80	-0,5963	0,9170	-0,5642	-1000000	-1000000	-1000000
62,40	-0,6632	0,9601	-0,6222	-1000000	-1000000	-1000000
65,00	-0,7315	1,004	-0,6823	-1000000	-1000000	-1000000
67,60	-0,7907	1,047	-0,7322	-1000000	-1000000	-1000000
70,20	-0,8584	1,090	-0,7931	-1000000	-1000000	-1000000
72,80	-0,9050	1,134	-0,8319	-1000000	-1000000	-1000000
75,40	-0,9590	1,176	-0,8791	-1000000	-1000000	-1000000
78,00	-1,029	1,219	-0,9445	-1000000	-1000000	-1000000
80,60	-1,097	1,263	-1,004	-1000000	-1000000	-1000000
83,20	-1,163	1,306	-1,058	-1000000	-1000000	-1000000
85,80	-1,237	1,349	-1,117	-1000000	-1000000	-1000000
88,40	-1,311	1,393	-1,173	-1000000	-1000000	-1000000
91,00	-1,382	1,437	-1,221	-1000000	-1000000	-1000000
93,60	-1,467	1,480	-1,282	-1000000	-1000000	-1000000
96,20	-1,542	1,523	-1,327	-1000000	-1000000	-1000000
98,80	-1,628	1,566	-1,379	-1000000	-1000000	-1000000
101,40	-1,707	1,609	-1,420	-1000000	-1000000	-1000000
104,00	-1,799	1,654	-1,472	-1000000	-1000000	-1000000
106,60	-1,882	1,696	-1,513	-1000000	-1000000	-1000000
109,20	-1,969	1,740	-1,555	-1000000	-1000000	-1000000
111,80	-2,062	1,783	-1,594	-1000000	-1000000	-1000000
114,40	-2,141	1,826	-1,636	-1000000	-1000000	-1000000
117,00	-2,235	1,870	-1,694	-1000000	-1000000	-1000000
119,60	-2,328	1,912	-1,750	-1000000	-1000000	-1000000
122,20	-2,409	1,955	-1,789	-1000000	-1000000	-1000000
124,80	-2,501	2,000	-1,837	-1000000	-1000000	-1000000
127,40	-2,596	2,043	-1,882	-1000000	-1000000	-1000000
130,00	-2,683	2,086	-1,864	-1000000	-1000000	-1000000
132,60	-2,781	2,129	-1,895	-1000000	-1000000	-1000000
135,20	-2,883	2,172	-1,901	-1000000	-1000000	-1000000
137,80	-2,983	2,216	-1,886	-1000000	-1000000	-1000000
140,40	-3,075	2,259	-1,872	-1000000	-1000000	-1000000
143,00	-3,179	2,302	-1,862	-1000000	-1000000	-1000000
145,60	-3,282	2,346	-1,827	-1000000	-1000000	-1000000
148,20	-3,387	2,389	-1,817	-1000000	-1000000	-1000000
150,80	-3,482	2,433	-1,809	-1000000	-1000000	-1000000
153,40	-3,587	2,476	-1,791	-1000000	-1000000	-1000000
156,00	-3,696	2,519	-1,769	-1000000	-1000000	-1000000
158,60	-3,809	2,562	-1,744	-1000000	-1000000	-1000000
161,20	-3,897	2,606	-1,689	-1000000	-1000000	-1000000
163,80	-4,006	2,650	-1,693	-1000000	-1000000	-1000000
166,40	-4,103	2,692	-1,613	-1000000	-1000000	-1000000
169,00	-4,215	2,737	-1,630	-1000000	-1000000	-1000000
171,60	-4,329	2,779	-1,647	-1000000	-1000000	-1000000
174,20	-4,442	2,822	-1,657	-1000000	-1000000	-1000000
176,80	-4,558	2,866	-1,666	-1000000	-1000000	-1000000
179,40	-4,671	2,909	-1,684	-1000000	-1000000	-1000000
182,00	-4,783	2,952	-1,690	-1000000	-1000000	-1000000
184,60	-4,833	2,995	-1,679	-1000000	-1000000	-1000000
187,20	-4,935	3,038	-1,731	-1000000	-1000000	-1000000
189,80	-5,045	3,082	-1,770	-1000000	-1000000	-1000000
192,40	-5,159	3,125	-1,791	-1000000	-1000000	-1000000
195,00	-5,272	3,168	-1,807	-1000000	-1000000	-1000000
197,60	-5,385	3,211	-1,815	-1000000	-1000000	-1000000
200,20	-5,497	3,255	-1,803	-1000000	-1000000	-1000000
202,80	-5,610	3,298	-1,785	-1000000	-1000000	-1000000
205,40	-5,723	3,342	-1,752	-1000000	-1000000	-1000000
208,00	-5,838	3,385	-1,742	-1000000	-1000000	-1000000
210,60	-5,952	3,428	-1,729	-1000000	-1000000	-1000000
213,20	-6,068	3,472	-1,690	-1000000	-1000000	-1000000
215,80	-6,184	3,516	-1,637	-1000000	-1000000	-1000000
218,40	-6,300	3,559	-1,590	-1000000	-1000000	-1000000
221,00	-6,415	3,602	-1,588	-1000000	-1000000	-1000000
223,60	-6,531	3,645	-1,602	-1000000	-1000000	-1000000
226,20	-6,645	3,688	-1,623	-1000000	-1000000	-1000000
228,80	-6,750	3,733	-1,631	-1000000	-1000000	-1000000
231,40	-6,863	3,775	-1,647	-1000000	-1000000	-1000000
234,00	-6,976	3,819	-1,657	-1000000	-1000000	-1000000
236,60	-7,092	3,862	-1,668	-1000000	-1000000	-1000000
239,20	-7,206	3,905	-1,676	-1000000	-1000000	-1000000
241,80	-7,314	3,949	-1,662	-1000000	-1000000	-1000000
244,40	-7,313	3,991	-1,598	-1000000	-1000000	-1000000
247,00	-7,428	4,035	-1,636	-1000000	-1000000	-1000000
249,60	-7,543	4,078	-1,613	-1000000	-1000000	-1000000
252,20	-7,661	4,121	-1,591	-1000000	-1000000	-1000000
254,80	-7,779	4,165	-1,555	-1000000	-1000000	-1000000
257,40	-7,897	4,209	-1,539	-1000000	-1000000	-1000000
260,00	-8,015	4,251	-1,525	-1000000	-1000000	-1000000
262,60	-8,133	4,295	-1,530	-1000000	-1000000	-1000000
265,20	-8,249	4,338	-1,546	-1000000	-1000000	-1000000
267,80	-8,368	4,382	-1,556	-1000000	-1000000	-1000000
270,40	-8,486	4,425	-1,567	-1000000	-1000000	-1000000
273,00	-8,605	4,469	-1,580	-1000000	-1000000	-1000000
275,60	-8,721	4,512	-1,603	-1000000	-1000000	-1000000
278,20	-8,841	4,555	-1,618	-1000000	-1000000	-1000000
280,80	-8,960	4,599	-1,625	-1000000	-1000000	-1000000
283,40	-9,082	4,641	-1,638	-1000000	-1000000	-1000000
286,00	-9,201	4,685	-1,645	-1000000	-1000000	-1000000
288,60	-9,319	4,729	-1,614	-1000000	-1000000	-1000000
291,20	-9,436	4,771	-1,580	-1000000	-1000000	-1000000
293,80	-9,554	4,815	-1,563	-1000000	-1000000	-1000000
296,40	-9,669	4,859	-1,518	-1000000	-1000000	-1000000
299,00	-9,785	4,901	-1,481	-1000000	-1000000	-1000000
301,60	-9,900	4,945	-1,483	-1000000	-1000000	-1000000
304,20	-10,01	4,988	-1,480	-1000000	-1000000	-1000000
306,80	-10,13	5,031	-1,483	-1000000	-1000000	-1000000
309,40	-10,24	5,075	-1,550	-1000000	-1000000	-1000000
312,00	-10,35	5,118	-0,1418	-1000000	-1000000	-1000000
314,60	-10,46	5,161	-0,8994	-1000000	-1000000	-1000000
317,20	-10,57	5,205	-1,238	-1000000	-1000000	-1000000
319,80	-10,68	5,248	-1,238	-1000000	-1000000	-1000000
322,40	-10,80	5,292	-1,237	-1000000	-1000000	-1000000
325,00	-10,90	5,334	-1,237	-1000000	-1000000	-1000000
327,60	-11,01	5,382	-1,237	-1000000	-1000000	-1000000
330,20	-11,12	5,426	-1,237	-1000000	-1000000	-1000000
332,80	-11,23	5,469	-1,237	-1000000	-1000000	-1000000
335,40	-11,33	5,512	-1,237	-1000000	-1000000	-1000000
338,00	-9,385	5,555	-1,239	-1000000	-1000000	-1000000
340,60	-9,548	5,599	-1,239	-1000000	-1000000	-1000000
343,20	-9,703	5,642	-1,239	-1000000	-1000000	-1000000
345,80	-9,856	5,686	-1,239	-1000000	-1000000	-1000000
348,40	-10,01	5,729	-1,239	-1000000	-1000000	-1000000
351,00	-10,16	5,772	-1,239	-1000000	-1000000	-1000000
353,60	-10,30	5,816	-1,239	-1000000	-1000000	-1000000
356,20	-10,45	5,858	-1,239	-1000000	-1000000	-1000000
358,80	-10,59	5,902	-1,239	-1000000	-1000000	-1000000
361,40	-10,74	5,946	-1,239	-1000000	-1000000	-1000000
364,00	-10,88	5,989	-1,239	-1000000	-1000000	-1000000
366,60	-11,02	6,033	-1,239	-1000000	-1000000	-1000000
369,20	-11,16	6,076	-1,239	-1000000	-1000000	-1000000
371,80	-11,29	6,118	-1,239	-1000000	-1000000	-1000000
374,40	-11,43	6,162	-1,239	-1000000	-1000000	-1000000
377,00	-11,56	6,205	-1,239	-1000000	-1000000	-1000000
379,60	-11,69	6,248	-1,239	-1000000	-1000000	-1000000
382,20	-11,82	6,292	-1,239	-1000000	-1000000	-1000000
384,80	-11,95	6,335	-1,239	-1000000	-1000000	-1000000
387,40	-12,08	6,378	-1,239	-1000000	-1000000	-1000000
390,00	-12,20	6,421	-1,239	-1000000	-1000000	-1000000
392,60	-12,33	6,465	-1,239	-1000000	-1000000	-1000000
395,20	-12,45	6,508	-1,239	-1000000	-1000000	-1000000
397,80	-12,57	6,552	-1,239	-1000000	-1000000	-1000000
400,40	-12,69	6,595	-1,239	-1000000	-1000000	-1000000
403,00	-12,81	6,638	-1,239	-1000000	-1000000	-1000000
405,60	-12,93	6,682	-1,239	-1000000	-1000000	-1000000
408,20	-13,05	6,724	-1,239	-1000000	-1000000	-1000000
410,80	-12,67	6,767	-1,240	-1000000	-1000000	-1000000
413,40	-12,55	6,811	-1,239	-1000000	-1000000	-1000000
416,00	-12,70	6,854	-1,239	-1000000	-1000000	-1000000
418,60	-12,85	6,897	-1,239	-1000000	-1000000	-1000000
421,20	-12,99	6,940	-1,239	-1000000	-1000000	-1000000
423,80	-13,13	6,983	-1,239	-1000000	-1000000	-1000000
426,40	-13,26	7,027	-1,239	-1000000	-1000000	-1000000
429,00	-13,39	7,070	-1,239	-1000000	-1000000	-1000000
431,60	-13,52	7,113	-1,239	-1000000	-1000000	-1000000
434,20	-13,65	7,157	-1,239	-1000000	-1000000	-1000000
436,80	-13,77	7,200	-1,239	-1000000	-1000000	-1000000
439,40	-13,89	7,243	-1,239	-1000000	-1000000	-1000000
442,00	-14,01	7,286	-1,239	-1000000	-1000000	-1000000
444,60	-14,13	7,329	-1,240	-1000000	-1000000	-1000000
447,20	-14,24	7,372	-1,240	-1000000	-1000000	-1000000
449,80	-14,35	7,416	-1,240	-1000000	-1000000	-1000000
452,40	-14,46	7,459	-1,240	-1000000	-1000000	-1000000
455,00	-14,57	7,502	-1,240	-1000000	-1000000	-1000000
457,60	-14,63	7,546	-1,240	-1000000	-1000000	-1000000
460,20	0,00329	7,588	-1,238	-1000000	-1000000	-1000000
462,80	-0,00233	7,632	-1,238	-1000000	-1000000	-1000000
465,40	-0,00461	7,675	-1,238	-1000000	-1000000	-1000000
466,30	-0,00470	7,690	-1,238	-1000000	-1000000	-1000000