Folder: bmcs_beam/notebooks/experimental_tests/results/carbon_tensile_tests (part 4)

File: F7.txt
Zeit  1 - Standardmessrate [s]	Kraft [kN]	Weg [mm]	DD1 [Prom]	PMX_1 CH 3-2 [µm/m]	PMX_1 CH 3-3 [mm]	PMX_1 CH 3-4 [mm]
0	0,00299	-0,00119	-0,00052	-1000000	-1000000	-1000000
6,600	-0,00129	0,02676	-0,02790	-1000000	-1000000	-1000000
13,20	-0,02379	0,1374	-0,1377	-1000000	-1000000	-1000000
19,80	-0,04213	0,2470	-0,1533	-1000000	-1000000	-1000000
26,40	-0,06249	0,3567	-0,1939	-1000000	-1000000	-1000000
33,00	-0,08288	0,4670	-0,2278	-1000000	-1000000	-1000000
39,60	-0,1073	0,5762	-0,2565	-1000000	-1000000	-1000000
46,20	-0,1274	0,6863	-0,2617	-1000000	-1000000	-1000000
52,80	-0,1478	0,7963	-0,2689	-1000000	-1000000	-1000000
59,40	-0,1760	0,9059	-0,2773	-1000000	-1000000	-1000000
66,00	-0,2213	1,015	-0,2925	-1000000	-1000000	-1000000
72,60	-0,2613	1,126	-0,2968	-1000000	-1000000	-1000000
79,20	-0,2818	1,236	-0,2744	-1000000	-1000000	-1000000
85,80	-0,3002	1,345	-0,2710	-1000000	-1000000	-1000000
92,40	-0,3142	1,456	-0,2587	-1000000	-1000000	-1000000
99,00	-0,3347	1,566	-0,2659	-1000000	-1000000	-1000000
105,60	-0,3498	1,676	-0,2556	-1000000	-1000000	-1000000
112,20	-0,3773	1,786	-0,2589	-1000000	-1000000	-1000000
118,80	-0,3880	1,895	-0,2380	-1000000	-1000000	-1000000
125,40	-0,4486	2,005	-0,2692	-1000000	-1000000	-1000000
132,00	-0,4991	2,115	-0,2670	-1000000	-1000000	-1000000
138,60	-0,5628	2,225	-0,2644	-1000000	-1000000	-1000000
145,20	-0,6265	2,336	-0,2480	-1000000	-1000000	-1000000
151,80	-0,6839	2,446	-0,2091	-1000000	-1000000	-1000000
158,40	-0,7817	2,555	-0,2111	-1000000	-1000000	-1000000
165,00	-0,8676	2,666	-0,1801	-1000000	-1000000	-1000000
171,60	-0,9812	2,776	-0,1780	-1000000	-1000000	-1000000
178,20	-1,100	2,885	-0,1739	-1000000	-1000000	-1000000
184,80	-1,215	2,995	-0,1659	-1000000	-1000000	-1000000
191,40	-1,335	3,105	-0,1469	-1000000	-1000000	-1000000
198,00	-1,479	3,215	-0,1643	-1000000	-1000000	-1000000
204,60	-1,604	3,324	-0,1702	-1000000	-1000000	-1000000
211,20	-1,747	3,435	-0,1794	-1000000	-1000000	-1000000
217,80	-1,899	3,545	-0,1858	-1000000	-1000000	-1000000
224,40	-2,044	3,655	-0,1773	-1000000	-1000000	-1000000
231,00	-2,184	3,764	-0,1599	-1000000	-1000000	-1000000
237,60	-2,333	3,875	-0,1229	-1000000	-1000000	-1000000
244,20	-2,489	3,984	-0,08070	-1000000	-1000000	-1000000
250,80	-2,652	4,094	-0,02623	-1000000	-1000000	-1000000
257,40	-2,805	4,204	-0,00483	-1000000	-1000000	-1000000
264,00	-2,963	4,314	0,00493	-1000000	-1000000	-1000000
270,60	-3,123	4,424	0,00705	-1000000	-1000000	-1000000
277,20	-3,285	4,534	0,00219	-1000000	-1000000	-1000000
283,80	-3,443	4,644	0,00068	-1000000	-1000000	-1000000
290,40	-3,571	4,754	0,00494	-1000000	-1000000	-1000000
297,00	-3,743	4,863	-0,02867	-1000000	-1000000	-1000000
303,60	-3,912	4,974	-0,04676	-1000000	-1000000	-1000000
310,20	-4,076	5,084	-0,06516	-1000000	-1000000	-1000000
316,80	-4,240	5,194	-0,06528	-1000000	-1000000	-1000000
323,40	-4,412	5,304	-0,06253	-1000000	-1000000	-1000000
330,00	-4,583	5,418	-0,05848	-1000000	-1000000	-1000000
336,60	-4,753	5,528	-0,06575	-1000000	-1000000	-1000000
343,20	-4,927	5,638	-0,08310	-1000000	-1000000	-1000000
349,80	-5,096	5,748	-0,09806	-1000000	-1000000	-1000000
356,40	-5,269	5,858	-0,1197	-1000000	-1000000	-1000000
363,00	-5,442	5,967	-0,1363	-1000000	-1000000	-1000000
369,60	-5,613	6,077	-0,1299	-1000000	-1000000	-1000000
376,20	-5,788	6,187	-0,1191	-1000000	-1000000	-1000000
382,80	-5,963	6,297	-0,1042	-1000000	-1000000	-1000000
389,40	-6,137	6,408	-0,1108	-1000000	-1000000	-1000000
396,00	-6,312	6,517	-0,1255	-1000000	-1000000	-1000000
402,60	-6,488	6,627	-0,1412	-1000000	-1000000	-1000000
409,20	-6,664	6,737	-0,1609	-1000000	-1000000	-1000000
415,80	-6,840	6,847	-0,1705	-1000000	-1000000	-1000000
422,40	-7,017	6,956	-0,1779	-1000000	-1000000	-1000000
429,00	-7,193	7,066	-0,1785	-1000000	-1000000	-1000000
435,60	-7,369	7,175	-0,1768	-1000000	-1000000	-1000000
442,20	-7,545	7,285	-0,1686	-1000000	-1000000	-1000000
448,80	-7,724	7,394	-0,1648	-1000000	-1000000	-1000000
455,40	-7,903	7,504	-0,1613	-1000000	-1000000	-1000000
462,00	-8,080	7,615	-0,1648	-1000000	-1000000	-1000000
468,60	-8,257	7,724	-0,1718	-1000000	-1000000	-1000000
475,20	-8,433	7,835	-0,1754	-1000000	-1000000	-1000000
481,80	-8,609	7,945	-0,1778	-1000000	-1000000	-1000000
488,40	-8,784	8,055	1,263	-1000000	-1000000	-1000000
495,00	-8,961	8,164	0,3934	-1000000	-1000000	-1000000
501,60	-9,140	8,274	0,3931	-1000000	-1000000	-1000000
508,20	-9,312	8,384	0,3929	-1000000	-1000000	-1000000
514,80	-9,485	8,494	0,3930	-1000000	-1000000	-1000000
521,40	-9,655	8,604	0,3928	-1000000	-1000000	-1000000
528,00	-9,818	8,714	0,3927	-1000000	-1000000	-1000000
534,60	-9,969	8,824	0,3925	-1000000	-1000000	-1000000
541,20	-10,11	8,934	0,3923	-1000000	-1000000	-1000000
547,80	-10,23	9,043	0,3923	-1000000	-1000000	-1000000
554,40	-10,35	9,153	0,3923	-1000000	-1000000	-1000000
561,00	-10,45	9,263	0,3922	-1000000	-1000000	-1000000
567,60	-10,56	9,372	0,3920	-1000000	-1000000	-1000000
574,20	-10,67	9,482	0,3918	-1000000	-1000000	-1000000
580,80	-10,78	9,592	0,3918	-1000000	-1000000	-1000000
587,40	-10,88	9,703	0,3917	-1000000	-1000000	-1000000
594,00	-10,99	9,813	0,3915	-1000000	-1000000	-1000000
600,60	-11,10	9,923	0,3915	-1000000	-1000000	-1000000
607,20	-11,20	10,03	0,3915	-1000000	-1000000	-1000000
613,80	-11,30	10,14	0,3914	-1000000	-1000000	-1000000
620,40	-11,41	10,25	0,3914	-1000000	-1000000	-1000000
627,00	-11,51	10,36	0,3914	-1000000	-1000000	-1000000
633,60	-11,61	10,47	0,3914	-1000000	-1000000	-1000000
640,20	-11,70	10,58	0,3914	-1000000	-1000000	-1000000
646,80	-11,80	10,70	0,3913	-1000000	-1000000	-1000000
653,40	-11,90	10,81	0,3913	-1000000	-1000000	-1000000
660,00	-11,99	10,92	0,3913	-1000000	-1000000	-1000000
666,60	-12,09	11,03	0,3913	-1000000	-1000000	-1000000
673,20	-12,18	11,14	0,3911	-1000000	-1000000	-1000000
679,80	-12,28	11,25	0,3912	-1000000	-1000000	-1000000
686,40	-12,37	11,36	0,3911	-1000000	-1000000	-1000000
693,00	-12,46	11,46	0,3911	-1000000	-1000000	-1000000
699,60	-12,55	11,57	0,3911	-1000000	-1000000	-1000000
706,20	-12,64	11,68	0,3911	-1000000	-1000000	-1000000
712,80	-12,73	11,79	0,3911	-1000000	-1000000	-1000000
719,40	-12,81	11,90	0,3911	-1000000	-1000000	-1000000
726,00	-12,89	12,01	0,3912	-1000000	-1000000	-1000000
732,60	-12,97	12,12	0,3912	-1000000	-1000000	-1000000
739,20	-13,03	12,23	0,3911	-1000000	-1000000	-1000000
745,80	-13,10	12,34	0,3911	-1000000	-1000000	-1000000
752,40	-13,08	12,45	0,3911	-1000000	-1000000	-1000000
759,00	-12,94	12,56	0,3911	-1000000	-1000000	-1000000
765,60	-12,75	12,67	0,3909	-1000000	-1000000	-1000000
772,20	-12,57	12,78	0,3910	-1000000	-1000000	-1000000
778,80	-12,40	12,89	0,3909	-1000000	-1000000	-1000000
785,40	-12,22	13,00	0,3909	-1000000	-1000000	-1000000
792,00	-12,00	13,11	0,3909	-1000000	-1000000	-1000000
798,60	-11,74	13,22	0,3908	-1000000	-1000000	-1000000
805,20	-11,46	13,33	0,3908	-1000000	-1000000	-1000000
811,80	-11,20	13,44	0,3907	-1000000	-1000000	-1000000
818,40	-10,94	13,55	0,3907	-1000000	-1000000	-1000000
825,00	-10,71	13,66	0,3907	-1000000	-1000000	-1000000
831,60	-10,49	13,77	0,3906	-1000000	-1000000	-1000000
838,20	-10,28	13,88	0,3907	-1000000	-1000000	-1000000
844,80	-10,08	13,99	0,3908	-1000000	-1000000	-1000000
851,40	-9,887	14,10	0,3909	-1000000	-1000000	-1000000
858,00	-9,683	14,21	0,3907	-1000000	-1000000	-1000000
864,60	-9,470	14,32	0,3906	-1000000	-1000000	-1000000
871,20	-9,255	14,43	0,3906	-1000000	-1000000	-1000000
877,80	-9,050	14,54	0,3906	-1000000	-1000000	-1000000
884,40	-8,858	14,65	0,3906	-1000000	-1000000	-1000000
891,00	-8,664	14,76	0,3905	-1000000	-1000000	-1000000
897,60	-8,463	14,87	0,3907	-1000000	-1000000	-1000000
904,20	-8,253	14,98	0,3906	-1000000	-1000000	-1000000
910,80	-8,040	15,09	0,3907	-1000000	-1000000	-1000000
917,40	-7,844	15,20	0,3906	-1000000	-1000000	-1000000
924,00	-7,662	15,31	0,3905	-1000000	-1000000	-1000000
930,60	-7,493	15,42	0,3905	-1000000	-1000000	-1000000
937,20	-7,343	15,53	0,3905	-1000000	-1000000	-1000000
943,80	-7,212	15,64	0,3905	-1000000	-1000000	-1000000
950,40	-7,091	15,75	0,3905	-1000000	-1000000	-1000000
957,00	-6,983	15,86	0,3904	-1000000	-1000000	-1000000
963,60	-6,871	15,97	0,3905	-1000000	-1000000	-1000000
970,20	-6,760	16,08	0,3904	-1000000	-1000000	-1000000
976,80	-6,649	16,19	0,3907	-1000000	-1000000	-1000000
983,40	-6,547	16,30	0,3906	-1000000	-1000000	-1000000
990,00	-6,447	16,41	0,3905	-1000000	-1000000	-1000000
996,60	-6,353	16,52	0,3907	-1000000	-1000000	-1000000
1003,2	-6,263	16,63	0,3910	-1000000	-1000000	-1000000
1009,8	-6,186	16,74	0,3909	-1000000	-1000000	-1000000
1016,4	-6,117	16,85	0,3907	-1000000	-1000000	-1000000
1023,0	-6,043	16,96	0,3905	-1000000	-1000000	-1000000
1029,6	-5,963	17,07	0,3906	-1000000	-1000000	-1000000
1036,2	-5,890	17,18	0,3910	-1000000	-1000000	-1000000
1042,8	-5,825	17,29	0,3913	-1000000	-1000000	-1000000
1049,4	-5,759	17,40	0,3915	-1000000	-1000000	-1000000
1056,0	-5,691	17,51	0,3915	-1000000	-1000000	-1000000
1062,6	-5,625	17,62	0,3915	-1000000	-1000000	-1000000
1069,2	-5,561	17,73	0,3914	-1000000	-1000000	-1000000
1075,8	-5,495	17,84	0,3916	-1000000	-1000000	-1000000
1082,4	-5,439	17,95	0,3916	-1000000	-1000000	-1000000
1089,0	-5,388	18,06	0,3917	-1000000	-1000000	-1000000
1095,6	-5,348	18,17	0,3919	-1000000	-1000000	-1000000
1102,2	-5,314	18,28	0,3918	-1000000	-1000000	-1000000
1108,8	-5,290	18,39	0,3919	-1000000	-1000000	-1000000
1115,4	-5,267	18,50	0,3918	-1000000	-1000000	-1000000
1122,0	-5,244	18,61	0,3919	-1000000	-1000000	-1000000
1128,6	-5,222	18,72	0,3918	-1000000	-1000000	-1000000
1135,2	-5,202	18,83	0,3917	-1000000	-1000000	-1000000
1141,8	-5,179	18,94	0,3917	-1000000	-1000000	-1000000
1148,4	-5,156	19,05	0,3918	-1000000	-1000000	-1000000
1155,0	-5,132	19,16	0,3921	-1000000	-1000000	-1000000
1161,6	-5,110	19,27	0,3921	-1000000	-1000000	-1000000
1168,2	-5,089	19,38	0,3922	-1000000	-1000000	-1000000
1174,8	-5,068	19,49	0,3924	-1000000	-1000000	-1000000
1181,4	-5,048	19,60	0,3923	-1000000	-1000000	-1000000
1188,0	-5,025	19,71	0,3922	-1000000	-1000000	-1000000
1194,6	-5,000	19,82	0,3922	-1000000	-1000000	-1000000
1201,2	-4,979	19,93	0,3920	-1000000	-1000000	-1000000
1202,5	-4,975	19,95	0,3920	-1000000	-1000000	-1000000

File: F8.txt
Zeit  1 - Standardmessrate [s]	Kraft [kN]	Weg [mm]	DD1 [Prom]	PMX_1 CH 3-2 [µm/m]	PMX_1 CH 3-3 [mm]	PMX_1 CH 3-4 [mm]
0	-0,08270	0,00021	0,000	-1000000	-1000000	-1000000
3,800	-0,08307	24,03	0,000	-1000000	-1000000	-1000000
7,600	-0,08849	24,04	-0,01244	-1000000	-1000000	-1000000
11,40	-0,1392	24,11	-0,09898	-1000000	-1000000	-1000000
15,20	-0,1801	24,17	-0,1539	-1000000	-1000000	-1000000
19,00	-0,2225	24,24	-0,1991	-1000000	-1000000	-1000000
22,80	-0,2512	24,30	-0,2258	-1000000	-1000000	-1000000
26,60	-0,2573	24,36	-0,2777	-1000000	-1000000	-1000000
30,40	-0,2587	24,42	-0,2872	-1000000	-1000000	-1000000
34,20	-0,2737	24,49	-0,3019	-1000000	-1000000	-1000000
38,00	-0,2874	24,55	-0,3191	-1000000	-1000000	-1000000
41,80	-0,3292	24,61	-0,3482	-1000000	-1000000	-1000000
45,60	-0,3468	24,68	-0,3428	-1000000	-1000000	-1000000
49,40	-0,3699	24,74	-0,3562	-1000000	-1000000	-1000000
53,20	-0,4199	24,80	-0,3961	-1000000	-1000000	-1000000
57,00	-0,4639	24,87	-0,4168	-1000000	-1000000	-1000000
60,80	-0,5214	24,93	-0,4510	-1000000	-1000000	-1000000
64,60	-0,5591	24,99	-0,4416	-1000000	-1000000	-1000000
68,40	-0,6086	25,06	-0,4714	-1000000	-1000000	-1000000
72,20	-0,6843	25,12	-0,5030	-1000000	-1000000	-1000000
76,00	-0,7646	25,18	-0,5215	-1000000	-1000000	-1000000
79,80	-0,8452	25,25	-0,5274	-1000000	-1000000	-1000000
83,60	-0,9251	25,31	-0,5305	-1000000	-1000000	-1000000
87,40	-1,006	25,37	-0,5335	-1000000	-1000000	-1000000
91,20	-1,088	25,44	-0,5464	-1000000	-1000000	-1000000
95,00	-1,170	25,50	-0,5565	-1000000	-1000000	-1000000
98,80	-1,256	25,56	-0,5681	-1000000	-1000000	-1000000
102,60	-1,342	25,63	-0,5759	-1000000	-1000000	-1000000
106,40	-1,429	25,69	-0,5802	-1000000	-1000000	-1000000
110,20	-1,515	25,75	-0,5843	-1000000	-1000000	-1000000
114,00	-1,590	25,82	-0,5046	-1000000	-1000000	-1000000
117,80	-1,675	25,88	-0,5260	-1000000	-1000000	-1000000
121,60	-1,761	25,94	-0,5338	-1000000	-1000000	-1000000
125,40	-1,843	26,01	-0,5298	-1000000	-1000000	-1000000
129,20	-1,920	26,07	-0,5085	-1000000	-1000000	-1000000
133,00	-1,996	26,13	-0,4853	-1000000	-1000000	-1000000
136,80	-2,064	26,20	-0,4685	-1000000	-1000000	-1000000
140,60	-2,120	26,26	-0,4616	-1000000	-1000000	-1000000
144,40	-2,149	26,32	-0,4474	-1000000	-1000000	-1000000
148,20	-2,135	26,39	-0,4091	-1000000	-1000000	-1000000
152,00	-2,076	26,45	-0,3352	-1000000	-1000000	-1000000
155,80	-1,996	26,51	-0,2768	-1000000	-1000000	-1000000
159,60	-1,945	26,58	-0,2733	-1000000	-1000000	-1000000
163,40	-1,925	26,64	-0,2854	-1000000	-1000000	-1000000
167,20	-1,922	26,70	-0,3017	-1000000	-1000000	-1000000
171,00	-1,930	26,77	-0,3203	-1000000	-1000000	-1000000
174,80	-1,947	26,83	-0,3425	-1000000	-1000000	-1000000
178,60	-1,967	26,89	-0,3641	-1000000	-1000000	-1000000
182,40	-1,991	26,96	-0,3854	-1000000	-1000000	-1000000
186,20	-2,017	27,02	-0,4031	-1000000	-1000000	-1000000
190,00	-2,041	27,08	-0,4157	-1000000	-1000000	-1000000
193,80	-2,065	27,15	-0,4259	-1000000	-1000000	-1000000
197,60	-2,087	27,21	-0,4334	-1000000	-1000000	-1000000
201,40	-2,111	27,27	-0,4386	-1000000	-1000000	-1000000
205,20	-2,132	27,34	-0,4431	-1000000	-1000000	-1000000
209,00	-2,148	27,40	-0,4427	-1000000	-1000000	-1000000
212,80	-2,156	27,46	-0,4379	-1000000	-1000000	-1000000
216,60	-2,157	27,53	-0,4292	-1000000	-1000000	-1000000
220,40	-2,154	27,59	-0,4186	-1000000	-1000000	-1000000
224,20	-2,149	27,65	-0,4079	-1000000	-1000000	-1000000
228,00	-2,143	27,72	-0,3977	-1000000	-1000000	-1000000
231,80	-2,137	27,78	-0,3892	-1000000	-1000000	-1000000
235,60	-2,133	27,84	-0,3847	-1000000	-1000000	-1000000
239,40	-2,133	27,91	-0,3839	-1000000	-1000000	-1000000
243,20	-2,136	27,97	-0,3846	-1000000	-1000000	-1000000
247,00	-2,135	28,03	-0,3835	-1000000	-1000000	-1000000
250,80	-2,136	28,10	-0,3845	-1000000	-1000000	-1000000
254,60	-2,138	28,16	-0,3862	-1000000	-1000000	-1000000
258,40	-2,140	28,22	-0,3874	-1000000	-1000000	-1000000
262,20	-2,140	28,29	-0,3869	-1000000	-1000000	-1000000
266,00	-2,140	28,35	-0,3849	-1000000	-1000000	-1000000
269,80	-2,140	28,41	-0,3809	-1000000	-1000000	-1000000
273,60	-2,136	28,47	-0,3778	-1000000	-1000000	-1000000
277,40	-2,135	28,54	-0,3744	-1000000	-1000000	-1000000
281,20	-2,128	28,60	-0,3685	-1000000	-1000000	-1000000
285,00	-2,124	28,67	-0,3622	-1000000	-1000000	-1000000
288,80	-2,116	28,73	-0,3544	-1000000	-1000000	-1000000
292,60	-2,108	28,79	-0,3447	-1000000	-1000000	-1000000
296,40	-2,098	28,86	-0,3369	-1000000	-1000000	-1000000
300,20	-2,087	28,92	-0,3291	-1000000	-1000000	-1000000
304,00	-2,075	28,98	-0,3220	-1000000	-1000000	-1000000
307,80	-2,063	29,05	-0,3153	-1000000	-1000000	-1000000
311,60	-2,051	29,11	-0,3096	-1000000	-1000000	-1000000
315,40	-2,041	29,17	-0,3052	-1000000	-1000000	-1000000
319,20	-2,030	29,24	-0,3025	-1000000	-1000000	-1000000
323,00	-2,019	29,30	-0,3006	-1000000	-1000000	-1000000
326,80	-2,011	29,36	-0,2993	-1000000	-1000000	-1000000
330,60	-1,999	29,43	-0,2988	-1000000	-1000000	-1000000
334,40	-1,991	29,49	-0,2969	-1000000	-1000000	-1000000
338,20	-1,979	29,56	-0,2941	-1000000	-1000000	-1000000
342,00	-1,967	29,62	-0,2909	-1000000	-1000000	-1000000
345,80	-1,951	29,68	-0,2879	-1000000	-1000000	-1000000
349,60	-1,938	29,75	-0,2866	-1000000	-1000000	-1000000
353,40	-1,926	29,81	-0,2856	-1000000	-1000000	-1000000
357,20	-1,913	29,87	-0,2846	-1000000	-1000000	-1000000
361,00	-1,902	29,94	-0,2845	-1000000	-1000000	-1000000
364,80	-1,889	30,00	-0,2841	-1000000	-1000000	-1000000
368,60	-1,873	30,06	-0,2820	-1000000	-1000000	-1000000
372,40	-1,860	30,13	-0,2805	-1000000	-1000000	-1000000
376,20	-1,844	30,19	-0,2783	-1000000	-1000000	-1000000
380,00	-1,828	30,25	-0,2765	-1000000	-1000000	-1000000
383,80	-1,812	30,32	-0,2751	-1000000	-1000000	-1000000
387,60	-1,795	30,38	-0,2716	-1000000	-1000000	-1000000
391,40	-1,775	30,44	-0,2693	-1000000	-1000000	-1000000
395,20	-1,755	30,50	-0,2679	-1000000	-1000000	-1000000
399,00	-1,738	30,57	-0,2674	-1000000	-1000000	-1000000
402,80	-1,719	30,63	-0,2674	-1000000	-1000000	-1000000
406,60	-1,702	30,70	-0,2678	-1000000	-1000000	-1000000
410,40	-1,686	30,76	-0,2672	-1000000	-1000000	-1000000
414,20	-1,673	30,82	-0,2676	-1000000	-1000000	-1000000
418,00	-1,660	30,88	-0,2674	-1000000	-1000000	-1000000
421,80	-1,645	30,95	-0,2653	-1000000	-1000000	-1000000
425,60	-1,634	31,01	-0,2650	-1000000	-1000000	-1000000
429,40	-1,621	31,07	-0,2630	-1000000	-1000000	-1000000
433,20	-1,611	31,14	-0,2617	-1000000	-1000000	-1000000
437,00	-1,600	31,20	-0,2592	-1000000	-1000000	-1000000
440,80	-1,586	31,26	-0,2556	-1000000	-1000000	-1000000
444,60	-1,576	31,33	-0,2536	-1000000	-1000000	-1000000
448,40	-1,564	31,39	-0,2533	-1000000	-1000000	-1000000
452,20	-1,556	31,45	-0,2519	-1000000	-1000000	-1000000
456,00	-1,547	31,52	-0,2517	-1000000	-1000000	-1000000
459,80	-1,539	31,58	-0,2513	-1000000	-1000000	-1000000
463,60	-1,532	31,64	-0,2513	-1000000	-1000000	-1000000
467,40	-1,527	31,71	-0,2531	-1000000	-1000000	-1000000
471,20	-1,521	31,77	-0,2524	-1000000	-1000000	-1000000
475,00	-1,517	31,83	-0,2535	-1000000	-1000000	-1000000
478,80	-1,513	31,90	-0,2544	-1000000	-1000000	-1000000
482,60	-1,510	31,96	-0,2559	-1000000	-1000000	-1000000
486,40	-1,506	32,02	-0,2561	-1000000	-1000000	-1000000
490,20	-1,502	32,09	-0,2564	-1000000	-1000000	-1000000
494,00	-1,498	32,15	-0,2567	-1000000	-1000000	-1000000
497,80	-1,496	32,21	-0,2595	-1000000	-1000000	-1000000
501,60	-1,495	32,28	-0,2613	-1000000	-1000000	-1000000
505,40	-1,493	32,34	-0,2624	-1000000	-1000000	-1000000
509,20	-1,491	32,40	-0,2645	-1000000	-1000000	-1000000
513,00	-1,488	32,47	-0,2644	-1000000	-1000000	-1000000
516,80	-1,489	32,53	-0,2670	-1000000	-1000000	-1000000
520,60	-1,488	32,59	-0,2695	-1000000	-1000000	-1000000
524,40	-1,487	32,66	-0,2710	-1000000	-1000000	-1000000
528,20	-1,487	32,72	-0,2734	-1000000	-1000000	-1000000
532,00	-1,486	32,78	-0,2747	-1000000	-1000000	-1000000
535,80	-1,486	32,85	-0,2766	-1000000	-1000000	-1000000
539,60	-1,486	32,91	-0,2787	-1000000	-1000000	-1000000
543,40	-1,486	32,97	-0,2794	-1000000	-1000000	-1000000
547,20	-1,482	33,04	-0,2794	-1000000	-1000000	-1000000
551,00	-1,482	33,10	-0,2803	-1000000	-1000000	-1000000
554,80	-1,481	33,16	-0,2804	-1000000	-1000000	-1000000
558,60	-1,478	33,23	-0,2810	-1000000	-1000000	-1000000
562,40	-1,478	33,29	-0,2810	-1000000	-1000000	-1000000
566,20	-1,474	33,35	-0,2799	-1000000	-1000000	-1000000
570,00	-1,473	33,41	-0,2796	-1000000	-1000000	-1000000
573,80	-1,470	33,48	-0,2791	-1000000	-1000000	-1000000
577,60	-1,470	33,54	-0,2789	-1000000	-1000000	-1000000
581,40	-1,466	33,60	-0,2789	-1000000	-1000000	-1000000
585,20	-1,464	33,67	-0,2784	-1000000	-1000000	-1000000
589,00	-1,462	33,73	-0,2770	-1000000	-1000000	-1000000
592,80	-1,458	33,79	-0,2762	-1000000	-1000000	-1000000
596,60	-1,455	33,86	-0,2747	-1000000	-1000000	-1000000
600,40	-1,454	33,92	-0,2749	-1000000	-1000000	-1000000
604,20	-1,450	33,99	-0,2738	-1000000	-1000000	-1000000
608,00	-1,446	34,05	-0,2723	-1000000	-1000000	-1000000
611,80	-1,442	34,11	-0,2709	-1000000	-1000000	-1000000
615,60	-1,437	34,18	-0,2702	-1000000	-1000000	-1000000
619,40	-1,433	34,24	-0,2674	-1000000	-1000000	-1000000
623,20	-1,429	34,30	-0,2656	-1000000	-1000000	-1000000
627,00	-1,422	34,36	-0,2623	-1000000	-1000000	-1000000
630,80	-1,417	34,43	-0,2605	-1000000	-1000000	-1000000
634,60	-1,411	34,49	-0,2577	-1000000	-1000000	-1000000
638,40	-1,405	34,55	-0,2547	-1000000	-1000000	-1000000
642,20	-1,400	34,62	-0,2529	-1000000	-1000000	-1000000
646,00	-1,393	34,68	-0,2501	-1000000	-1000000	-1000000
649,80	-1,388	34,75	-0,2489	-1000000	-1000000	-1000000
653,60	-1,381	34,81	-0,2474	-1000000	-1000000	-1000000
657,40	-1,376	34,87	-0,2447	-1000000	-1000000	-1000000
661,20	-1,368	34,94	-0,2408	-1000000	-1000000	-1000000
665,00	-1,361	35,00	-0,2387	-1000000	-1000000	-1000000
668,80	-1,356	35,06	-0,2367	-1000000	-1000000	-1000000
672,60	-1,349	35,13	-0,2347	-1000000	-1000000	-1000000
676,40	-1,343	35,19	-0,2320	-1000000	-1000000	-1000000
680,20	-1,336	35,25	-0,2303	-1000000	-1000000	-1000000
684,00	-1,308	35,30	-0,2009	-1000000	-1000000	-1000000
685,50	-1,281	35,30	-0,1730	-1000000	-1000000	-1000000