Folder: bmcs_beam/notebooks/experimental_tests/results/carbon_tensile_tests (part 2)

File: F3.txt
Zeit  1 - Standardmessrate [s]	Kraft [kN]	Weg [mm]	DD1 [Prom]	PMX_1 CH 3-2 [µm/m]	PMX_1 CH 3-3 [mm]	PMX_1 CH 3-4 [mm]
0	-0,02863	0,000	0,000	-1000000	-1000000	-1000000
2,600	-0,02865	0,000	0,000	-1000000	-1000000	-1000000
5,200	-0,07038	0,04527	-0,07891	-1000000	-1000000	-1000000
7,800	-0,1060	0,08870	-0,1406	-1000000	-1000000	-1000000
10,40	-0,1442	0,1329	-0,2008	-1000000	-1000000	-1000000
13,00	-0,1874	0,1759	-0,2637	-1000000	-1000000	-1000000
15,60	-0,2300	0,2195	-0,3231	-1000000	-1000000	-1000000
18,20	-0,2475	0,2633	-0,3469	-1000000	-1000000	-1000000
20,80	-0,2628	0,3061	-0,3683	-1000000	-1000000	-1000000
23,40	-0,2648	0,3491	-0,3707	-1000000	-1000000	-1000000
26,00	-0,2743	0,3930	-0,3807	-1000000	-1000000	-1000000
28,60	-0,2893	0,4360	-0,3995	-1000000	-1000000	-1000000
31,20	-0,3008	0,4796	-0,4141	-1000000	-1000000	-1000000
33,80	-0,3219	0,5224	-0,4407	-1000000	-1000000	-1000000
36,40	-0,3300	0,5657	-0,4501	-1000000	-1000000	-1000000
39,00	-0,3436	0,6091	-0,4687	-1000000	-1000000	-1000000
41,60	-0,3844	0,6528	-0,5210	-1000000	-1000000	-1000000
44,20	-0,4196	0,6949	-0,5642	-1000000	-1000000	-1000000
46,80	-0,4477	0,7388	-0,5999	-1000000	-1000000	-1000000
49,40	-0,4807	0,7826	-0,6414	-1000000	-1000000	-1000000
52,00	-0,4523	0,8253	-0,6079	-1000000	-1000000	-1000000
54,60	-0,5376	0,8691	-0,7132	-1000000	-1000000	-1000000
57,20	-0,5877	0,9119	-0,7735	-1000000	-1000000	-1000000
59,80	-0,6421	0,9554	-0,8407	-1000000	-1000000	-1000000
62,40	-0,7022	0,9987	-0,9136	-1000000	-1000000	-1000000
65,00	-0,7621	1,041	-0,9858	-1000000	-1000000	-1000000
67,60	-0,8224	1,085	-1,060	-1000000	-1000000	-1000000
70,20	-0,8887	1,128	-1,141	-1000000	-1000000	-1000000
72,80	-0,9596	1,171	-1,225	-1000000	-1000000	-1000000
75,40	-1,033	1,216	-1,313	-1000000	-1000000	-1000000
78,00	-1,110	1,258	-1,406	-1000000	-1000000	-1000000
80,60	-1,188	1,302	-1,499	-1000000	-1000000	-1000000
83,20	-1,268	1,346	-1,595	-1000000	-1000000	-1000000
85,80	-1,350	1,388	-1,692	-1000000	-1000000	-1000000
88,40	-1,433	1,432	-1,791	-1000000	-1000000	-1000000
91,00	-1,519	1,475	-1,892	-1000000	-1000000	-1000000
93,60	-1,605	1,518	-1,993	-1000000	-1000000	-1000000
96,20	-1,689	1,561	-2,093	-1000000	-1000000	-1000000
98,80	-1,778	1,605	-2,197	-1000000	-1000000	-1000000
101,40	-1,864	1,649	-2,299	-1000000	-1000000	-1000000
104,00	-1,954	1,692	-2,403	-1000000	-1000000	-1000000
106,60	-2,040	1,736	-2,504	-1000000	-1000000	-1000000
109,20	-2,131	1,779	-2,609	-1000000	-1000000	-1000000
111,80	-2,220	1,823	-2,711	-1000000	-1000000	-1000000
114,40	-2,312	1,866	-2,818	-1000000	-1000000	-1000000
117,00	-2,404	1,907	-2,924	-1000000	-1000000	-1000000
119,60	-2,493	1,951	-3,026	-1000000	-1000000	-1000000
122,20	-2,587	1,995	-3,134	-1000000	-1000000	-1000000
124,80	-2,680	2,038	-3,241	-1000000	-1000000	-1000000
127,40	-2,771	2,082	-3,345	-1000000	-1000000	-1000000
130,00	-2,867	2,125	-3,453	-1000000	-1000000	-1000000
132,60	-2,961	2,167	-3,561	-1000000	-1000000	-1000000
135,20	-3,054	2,213	-3,666	-1000000	-1000000	-1000000
137,80	-3,150	2,254	-3,774	-1000000	-1000000	-1000000
140,40	-3,246	2,298	-3,882	-1000000	-1000000	-1000000
143,00	-3,342	2,342	-3,991	-1000000	-1000000	-1000000
145,60	-3,437	2,385	-4,097	-1000000	-1000000	-1000000
148,20	-3,469	2,428	-4,131	-1000000	-1000000	-1000000
150,80	-3,568	2,471	-4,244	-1000000	-1000000	-1000000
153,40	-3,665	2,515	-4,353	-1000000	-1000000	-1000000
156,00	-3,761	2,559	-4,461	-1000000	-1000000	-1000000
158,60	-3,857	2,601	-4,570	-1000000	-1000000	-1000000
161,20	-3,949	2,645	-4,672	-1000000	-1000000	-1000000
163,80	-4,049	2,688	-4,784	-1000000	-1000000	-1000000
166,40	-4,144	2,732	-4,891	-1000000	-1000000	-1000000
169,00	-4,247	2,775	-5,006	-1000000	-1000000	-1000000
171,60	-4,345	2,818	-5,114	-1000000	-1000000	-1000000
174,20	-4,439	2,861	-5,217	-1000000	-1000000	-1000000
176,80	-4,548	2,904	-5,332	-1000000	-1000000	-1000000
179,40	-4,652	2,948	-5,447	-1000000	-1000000	-1000000
182,00	-4,754	2,991	-5,558	-1000000	-1000000	-1000000
184,60	-4,862	3,034	-5,677	-1000000	-1000000	-1000000
187,20	-4,963	3,078	-5,787	-1000000	-1000000	-1000000
189,80	-5,070	3,120	-5,904	-1000000	-1000000	-1000000
192,40	-5,161	3,164	-6,004	-1000000	-1000000	-1000000
195,00	-5,268	3,207	-6,118	-1000000	-1000000	-1000000
197,60	-5,377	3,251	-6,237	-1000000	-1000000	-1000000
200,20	-5,479	3,294	-6,346	-1000000	-1000000	-1000000
202,80	-5,584	3,337	-6,460	-1000000	-1000000	-1000000
205,40	-5,689	3,381	-6,573	-1000000	-1000000	-1000000
208,00	-5,803	3,424	-6,695	-1000000	-1000000	-1000000
210,60	-5,908	3,467	-6,808	-1000000	-1000000	-1000000
213,20	-6,015	3,510	-6,921	-1000000	-1000000	-1000000
215,80	-6,126	3,554	-7,041	-1000000	-1000000	-1000000
218,40	-6,224	3,597	-7,145	-1000000	-1000000	-1000000
221,00	-6,327	3,640	-7,254	-1000000	-1000000	-1000000
223,60	-6,436	3,684	-7,371	-1000000	-1000000	-1000000
226,20	-6,535	3,728	-7,474	-1000000	-1000000	-1000000
228,80	-6,641	3,770	-7,586	-1000000	-1000000	-1000000
231,40	-6,744	3,814	-7,693	-1000000	-1000000	-1000000
234,00	-6,853	3,857	-7,808	-1000000	-1000000	-1000000
236,60	-6,957	3,901	-7,918	-1000000	-1000000	-1000000
239,20	-7,067	3,944	-8,033	-1000000	-1000000	-1000000
241,80	-7,103	3,986	-8,061	-1000000	-1000000	-1000000
244,40	-7,198	4,030	-8,157	-1000000	-1000000	-1000000
247,00	-7,313	4,073	-8,281	-1000000	-1000000	-1000000
249,60	-7,410	4,116	-8,384	-1000000	-1000000	-1000000
252,20	-7,525	4,161	-8,506	-1000000	-1000000	-1000000
254,80	-7,627	4,203	-8,611	-1000000	-1000000	-1000000
257,40	-7,729	4,247	-8,717	-1000000	-1000000	-1000000
260,00	-7,834	4,291	-8,825	-1000000	-1000000	-1000000
262,60	-7,950	4,334	-8,945	-1000000	-1000000	-1000000
265,20	-8,047	4,377	-9,045	-1000000	-1000000	-1000000
267,80	-8,155	4,421	-9,156	-1000000	-1000000	-1000000
270,40	-8,232	4,464	-9,242	-1000000	-1000000	-1000000
273,00	-8,353	4,507	-9,370	-1000000	-1000000	-1000000
275,60	-8,453	4,551	-9,469	-1000000	-1000000	-1000000
278,20	-8,575	4,593	-9,594	-1000000	-1000000	-1000000
280,80	-8,688	4,637	-9,710	-1000000	-1000000	-1000000
283,40	-8,762	4,681	-9,784	-1000000	-1000000	-1000000
286,00	-8,883	4,724	-9,909	-1000000	-1000000	-1000000
288,60	-8,947	4,755	-9,969	-1000000	-1000000	-1000000
291,20	-8,934	4,755	-9,958	-1000000	-1000000	-1000000
293,80	-8,926	4,756	-9,950	-1000000	-1000000	-1000000
296,40	-8,919	4,756	-10,17	-1000000	-1000000	-1000000
299,00	-8,912	4,756	3,648	-1000000	-1000000	-1000000
301,60	-8,906	4,756	2,403	-1000000	-1000000	-1000000
304,20	-8,900	4,756	2,429	-1000000	-1000000	-1000000
306,80	-8,895	4,756	2,518	-1000000	-1000000	-1000000
309,40	-8,874	4,756	2,529	-1000000	-1000000	-1000000
312,00	-8,870	4,756	2,528	-1000000	-1000000	-1000000
314,60	-8,866	4,756	2,527	-1000000	-1000000	-1000000
317,20	-8,863	4,755	2,529	-1000000	-1000000	-1000000
319,80	-8,859	4,756	2,530	-1000000	-1000000	-1000000
322,40	-8,857	4,756	2,531	-1000000	-1000000	-1000000
325,00	-8,951	4,785	2,531	-1000000	-1000000	-1000000
327,60	-9,045	4,830	2,532	-1000000	-1000000	-1000000
330,20	-9,180	4,873	2,533	-1000000	-1000000	-1000000
332,80	-9,307	4,916	2,533	-1000000	-1000000	-1000000
335,40	-9,431	4,959	2,533	-1000000	-1000000	-1000000
338,00	-9,533	5,003	2,534	-1000000	-1000000	-1000000
340,60	-9,657	5,047	2,534	-1000000	-1000000	-1000000
343,20	-9,769	5,089	2,534	-1000000	-1000000	-1000000
345,80	-9,886	5,133	2,534	-1000000	-1000000	-1000000
348,40	-9,960	5,176	2,535	-1000000	-1000000	-1000000
351,00	-10,08	5,219	2,535	-1000000	-1000000	-1000000
353,60	-10,19	5,263	2,535	-1000000	-1000000	-1000000
356,20	-10,31	5,306	2,535	-1000000	-1000000	-1000000
358,80	-10,42	5,354	2,536	-1000000	-1000000	-1000000
361,40	-10,49	5,397	2,536	-1000000	-1000000	-1000000
364,00	-10,61	5,440	2,536	-1000000	-1000000	-1000000
366,60	-10,71	5,484	2,536	-1000000	-1000000	-1000000
369,20	-10,83	5,528	2,537	-1000000	-1000000	-1000000
371,80	-10,95	5,570	2,537	-1000000	-1000000	-1000000
374,40	-11,02	5,614	2,537	-1000000	-1000000	-1000000
377,00	-11,14	5,657	2,537	-1000000	-1000000	-1000000
379,60	-11,24	5,701	2,537	-1000000	-1000000	-1000000
382,20	-11,34	5,744	2,537	-1000000	-1000000	-1000000
384,80	-11,41	5,787	2,538	-1000000	-1000000	-1000000
387,40	-11,52	5,831	2,538	-1000000	-1000000	-1000000
390,00	-11,61	5,874	2,538	-1000000	-1000000	-1000000
392,60	-11,72	5,918	2,538	-1000000	-1000000	-1000000
395,20	-11,77	5,961	2,538	-1000000	-1000000	-1000000
397,80	-11,88	6,005	2,538	-1000000	-1000000	-1000000
400,40	-11,96	6,047	2,538	-1000000	-1000000	-1000000
403,00	-12,05	6,090	2,538	-1000000	-1000000	-1000000
405,60	-12,15	6,133	2,538	-1000000	-1000000	-1000000
408,20	-12,23	6,176	2,538	-1000000	-1000000	-1000000
410,80	-12,33	6,220	2,538	-1000000	-1000000	-1000000
413,40	-12,41	6,263	2,539	-1000000	-1000000	-1000000
416,00	-12,51	6,306	2,539	-1000000	-1000000	-1000000
418,60	-12,59	6,350	2,539	-1000000	-1000000	-1000000
421,20	-12,70	6,393	2,539	-1000000	-1000000	-1000000
423,80	-12,79	6,436	2,539	-1000000	-1000000	-1000000
426,40	-12,88	6,480	2,539	-1000000	-1000000	-1000000
429,00	-12,92	6,522	2,539	-1000000	-1000000	-1000000
431,60	-13,03	6,566	2,539	-1000000	-1000000	-1000000
434,20	-13,12	6,610	2,539	-1000000	-1000000	-1000000
436,80	-13,22	6,652	2,539	-1000000	-1000000	-1000000
439,40	-13,31	6,696	2,539	-1000000	-1000000	-1000000
442,00	-13,38	6,739	2,540	-1000000	-1000000	-1000000
444,60	-13,48	6,781	2,540	-1000000	-1000000	-1000000
447,20	-13,58	6,826	2,540	-1000000	-1000000	-1000000
449,80	-13,67	6,869	2,540	-1000000	-1000000	-1000000
452,40	0,00206	6,912	2,455	-1000000	-1000000	-1000000
455,00	-0,00363	6,956	2,452	-1000000	-1000000	-1000000
457,60	-0,00527	6,999	2,451	-1000000	-1000000	-1000000
460,20	-0,00719	7,041	2,451	-1000000	-1000000	-1000000
462,80	-0,00861	7,085	2,450	-1000000	-1000000	-1000000
464,70	-0,00961	7,116	2,450	-1000000	-1000000	-1000000

File: F4.txt
Zeit  1 - Standardmessrate [s]	Kraft [kN]	Weg [mm]	DD1 [Prom]	PMX_1 CH 3-2 [µm/m]	PMX_1 CH 3-3 [mm]	PMX_1 CH 3-4 [mm]
0	-0,04941	0,000	0,000	-1000000	-1000000	-1000000
2,400	-0,04946	-0,00031	0,000	-1000000	-1000000	-1000000
4,800	-0,05988	0,01190	-0,02216	-1000000	-1000000	-1000000
7,200	-0,1147	0,05255	-0,1323	-1000000	-1000000	-1000000
9,600	-0,1489	0,08088	-0,2014	-1000000	-1000000	-1000000
12,00	-0,1478	0,08149	-0,2019	-1000000	-1000000	-1000000
14,40	-0,1473	13,38	-0,2018	-1000000	-1000000	-1000000
16,80	-0,1474	13,38	-0,2015	-1000000	-1000000	-1000000
19,20	-0,1473	13,38	-0,2013	-1000000	-1000000	-1000000
21,60	-0,1906	13,42	-0,2737	-1000000	-1000000	-1000000
24,00	-0,2367	13,46	-0,3460	-1000000	-1000000	-1000000
26,40	-0,2591	13,50	-0,3832	-1000000	-1000000	-1000000
28,80	-0,2679	13,54	-0,3970	-1000000	-1000000	-1000000
31,20	-0,2690	13,58	-0,4019	-1000000	-1000000	-1000000
33,60	-0,2851	13,62	-0,4242	-1000000	-1000000	-1000000
36,00	-0,2977	13,66	-0,4406	-1000000	-1000000	-1000000
38,40	-0,3108	13,70	-0,4606	-1000000	-1000000	-1000000
40,80	-0,3304	13,74	-0,4862	-1000000	-1000000	-1000000
43,20	-0,3377	13,78	-0,4955	-1000000	-1000000	-1000000
45,60	-0,3432	13,82	-0,5050	-1000000	-1000000	-1000000
48,00	-0,3829	13,86	-0,5573	-1000000	-1000000	-1000000
50,40	-0,4256	13,90	-0,6136	-1000000	-1000000	-1000000
52,80	-0,4754	13,94	-0,6782	-1000000	-1000000	-1000000
55,20	-0,5323	13,98	-0,7509	-1000000	-1000000	-1000000
57,60	-0,5239	14,02	-0,7438	-1000000	-1000000	-1000000
60,00	-0,6013	14,06	-0,8415	-1000000	-1000000	-1000000
62,40	-0,6787	14,10	-0,9383	-1000000	-1000000	-1000000
64,80	-0,7568	14,14	-1,037	-1000000	-1000000	-1000000
67,20	-0,8353	14,18	-1,135	-1000000	-1000000	-1000000
69,60	-0,9159	14,22	-1,234	-1000000	-1000000	-1000000
72,00	-0,9957	14,26	-1,333	-1000000	-1000000	-1000000
74,40	-1,076	14,30	-1,432	-1000000	-1000000	-1000000
76,80	-1,159	14,34	-1,534	-1000000	-1000000	-1000000
79,20	-1,243	14,38	-1,638	-1000000	-1000000	-1000000
81,60	-1,328	14,42	-1,742	-1000000	-1000000	-1000000
84,00	-1,415	14,46	-1,847	-1000000	-1000000	-1000000
86,40	-1,502	14,50	-1,953	-1000000	-1000000	-1000000
88,80	-1,590	14,54	-2,059	-1000000	-1000000	-1000000
91,20	-1,678	14,58	-2,166	-1000000	-1000000	-1000000
93,60	-1,767	14,62	-2,273	-1000000	-1000000	-1000000
96,00	-1,857	14,66	-2,381	-1000000	-1000000	-1000000
98,40	-1,946	14,70	-2,489	-1000000	-1000000	-1000000
100,80	-2,035	14,74	-2,597	-1000000	-1000000	-1000000
103,20	-2,125	14,78	-2,704	-1000000	-1000000	-1000000
105,60	-2,216	14,82	-2,811	-1000000	-1000000	-1000000
108,00	-2,306	14,86	-2,920	-1000000	-1000000	-1000000
110,40	-2,397	14,90	-3,027	-1000000	-1000000	-1000000
112,80	-2,488	14,94	-3,135	-1000000	-1000000	-1000000
115,20	-2,580	14,98	-3,242	-1000000	-1000000	-1000000
117,60	-2,671	15,02	-3,350	-1000000	-1000000	-1000000
120,00	-2,762	15,06	-3,457	-1000000	-1000000	-1000000
122,40	-2,851	15,10	-3,562	-1000000	-1000000	-1000000
124,80	-2,941	15,14	-3,667	-1000000	-1000000	-1000000
127,20	-3,031	15,18	-3,772	-1000000	-1000000	-1000000
129,60	-3,116	15,22	-3,874	-1000000	-1000000	-1000000
132,00	-3,204	15,26	-3,975	-1000000	-1000000	-1000000
134,40	-3,289	15,30	-4,074	-1000000	-1000000	-1000000
136,80	-3,377	15,34	-4,175	-1000000	-1000000	-1000000
139,20	-3,463	15,38	-4,275	-1000000	-1000000	-1000000
141,60	-3,550	15,42	-4,375	-1000000	-1000000	-1000000
144,00	-3,637	15,46	-4,476	-1000000	-1000000	-1000000
146,40	-3,723	15,50	-4,576	-1000000	-1000000	-1000000
148,80	-3,811	15,54	-4,676	-1000000	-1000000	-1000000
151,20	-3,896	15,58	-4,775	-1000000	-1000000	-1000000
153,60	-3,971	15,62	-4,862	-1000000	-1000000	-1000000
156,00	-4,058	15,66	-4,961	-1000000	-1000000	-1000000
158,40	-4,143	15,70	-5,059	-1000000	-1000000	-1000000
160,80	-4,229	15,74	-5,158	-1000000	-1000000	-1000000
163,20	-4,315	15,78	-5,256	-1000000	-1000000	-1000000
165,60	-4,400	15,82	-5,354	-1000000	-1000000	-1000000
168,00	-4,487	15,86	-5,452	-1000000	-1000000	-1000000
170,40	-4,578	15,90	-5,550	-1000000	-1000000	-1000000
172,80	-4,665	15,94	-5,650	-1000000	-1000000	-1000000
175,20	-4,752	15,98	-5,747	-1000000	-1000000	-1000000
177,60	-4,834	16,02	-5,840	-1000000	-1000000	-1000000
180,00	-4,919	16,06	-5,935	-1000000	-1000000	-1000000
182,40	-5,004	16,10	-6,032	-1000000	-1000000	-1000000
184,80	-5,091	16,14	-6,129	-1000000	-1000000	-1000000
187,20	-5,177	16,18	-6,225	-1000000	-1000000	-1000000
189,60	-5,264	16,22	-6,323	-1000000	-1000000	-1000000
192,00	-5,352	16,26	-6,421	-1000000	-1000000	-1000000
194,40	-5,439	16,30	-6,519	-1000000	-1000000	-1000000
196,80	-5,267	16,34	-6,259	-1000000	-1000000	-1000000
199,20	-5,368	16,38	-6,373	-1000000	-1000000	-1000000
201,60	-5,462	16,42	-6,477	-1000000	-1000000	-1000000
204,00	-5,554	16,46	-6,578	-1000000	-1000000	-1000000
206,40	-5,642	16,50	-6,676	-1000000	-1000000	-1000000
208,80	-5,732	16,54	-6,775	-1000000	-1000000	-1000000
211,20	-5,819	16,58	-6,872	-1000000	-1000000	-1000000
213,60	-5,908	16,62	-6,969	-1000000	-1000000	-1000000
216,00	-5,996	16,66	-7,067	-1000000	-1000000	-1000000
218,40	-6,084	16,70	-7,164	-1000000	-1000000	-1000000
220,80	-6,171	16,74	-7,261	-1000000	-1000000	-1000000
223,20	-6,259	16,78	-7,357	-1000000	-1000000	-1000000
225,60	-6,344	16,82	-7,451	-1000000	-1000000	-1000000
228,00	-6,434	16,86	-7,550	-1000000	-1000000	-1000000
230,40	-6,524	16,90	-7,649	-1000000	-1000000	-1000000
232,80	-6,617	16,94	-7,750	-1000000	-1000000	-1000000
235,20	-6,709	16,98	-7,851	-1000000	-1000000	-1000000
237,60	-6,801	17,02	-7,953	-1000000	-1000000	-1000000
240,00	-6,894	17,06	-8,055	-1000000	-1000000	-1000000
242,40	-6,986	17,10	-8,156	-1000000	-1000000	-1000000
244,80	-7,081	17,14	-8,259	-1000000	-1000000	-1000000
247,20	-7,173	17,18	-8,361	-1000000	-1000000	-1000000
249,60	-7,267	17,22	-8,463	-1000000	-1000000	-1000000
252,00	-7,362	17,26	-8,566	-1000000	-1000000	-1000000
254,40	-7,454	17,30	-8,667	-1000000	-1000000	-1000000
256,80	-7,548	17,34	-8,770	-1000000	-1000000	-1000000
259,20	-7,642	17,38	-8,873	-1000000	-1000000	-1000000
261,60	-7,735	17,42	-8,977	-1000000	-1000000	-1000000
264,00	-7,772	17,46	-9,167	-1000000	-1000000	-1000000
266,40	-7,870	17,50	-9,274	-1000000	-1000000	-1000000
268,80	-7,965	17,54	-9,379	-1000000	-1000000	-1000000
271,20	-8,059	17,58	-9,483	-1000000	-1000000	-1000000
273,60	-8,154	17,62	-9,587	-1000000	-1000000	-1000000
276,00	-8,247	17,66	-9,693	-1000000	-1000000	-1000000
278,40	-8,338	17,70	-9,797	-1000000	-1000000	-1000000
280,80	-8,430	17,74	-9,905	-1000000	-1000000	-1000000
283,20	-8,523	17,78	-10,01	-1000000	-1000000	-1000000
285,60	-8,602	17,82	-10,12	-1000000	-1000000	-1000000
288,00	-8,698	17,86	-10,23	-1000000	-1000000	-1000000
290,40	-8,791	17,90	-10,33	-1000000	-1000000	-1000000
292,80	-8,887	17,94	-10,44	-1000000	-1000000	-1000000
295,20	-8,982	17,98	-10,55	-1000000	-1000000	-1000000
297,60	-9,080	18,02	-10,66	-1000000	-1000000	-1000000
300,00	-9,175	18,06	-10,77	-1000000	-1000000	-1000000
302,40	-9,269	18,10	-10,89	-1000000	-1000000	-1000000
304,80	-9,363	18,14	-11,02	-1000000	-1000000	-1000000
307,20	-9,456	18,18	-11,14	-1000000	-1000000	-1000000
309,60	-9,549	18,22	-11,26	-1000000	-1000000	-1000000
312,00	-9,638	18,26	-11,37	-1000000	-1000000	-1000000
314,40	-9,733	18,30	-11,49	-1000000	-1000000	-1000000
316,80	-9,827	18,34	-11,61	-1000000	-1000000	-1000000
319,20	-9,921	18,38	-11,73	-1000000	-1000000	-1000000
321,60	-9,996	18,42	-11,81	-1000000	-1000000	-1000000
324,00	-10,03	18,44	-11,86	-1000000	-1000000	-1000000
326,40	-10,00	18,44	-11,85	-1000000	-1000000	-1000000
328,80	-9,984	18,44	-12,93	-1000000	-1000000	-1000000
331,20	-9,964	18,44	2,650	-1000000	-1000000	-1000000
333,60	-9,948	18,44	1,914	-1000000	-1000000	-1000000
336,00	-9,933	18,44	1,916	-1000000	-1000000	-1000000
338,40	-9,918	18,44	1,919	-1000000	-1000000	-1000000
340,80	-10,02	18,47	1,922	-1000000	-1000000	-1000000
343,20	-10,13	18,51	1,923	-1000000	-1000000	-1000000
345,60	-10,24	18,55	1,926	-1000000	-1000000	-1000000
348,00	-10,33	18,59	1,927	-1000000	-1000000	-1000000
350,40	-10,44	18,63	1,928	-1000000	-1000000	-1000000
352,80	-10,53	18,67	1,930	-1000000	-1000000	-1000000
355,20	-10,63	18,71	1,930	-1000000	-1000000	-1000000
357,60	-10,73	18,76	1,930	-1000000	-1000000	-1000000
360,00	-10,83	18,80	1,930	-1000000	-1000000	-1000000
362,40	-10,93	18,84	1,930	-1000000	-1000000	-1000000
364,80	-11,02	18,88	1,930	-1000000	-1000000	-1000000
367,20	-11,12	18,92	1,930	-1000000	-1000000	-1000000
369,60	-11,21	18,96	1,921	-1000000	-1000000	-1000000
372,00	-11,31	19,00	1,923	-1000000	-1000000	-1000000
374,40	-11,41	19,04	1,924	-1000000	-1000000	-1000000
376,80	-11,50	19,08	1,923	-1000000	-1000000	-1000000
379,20	-11,60	19,12	1,924	-1000000	-1000000	-1000000
381,60	-11,69	19,16	1,924	-1000000	-1000000	-1000000
384,00	-11,79	19,20	1,925	-1000000	-1000000	-1000000
386,40	-11,88	19,24	1,925	-1000000	-1000000	-1000000
388,80	-11,98	19,28	1,925	-1000000	-1000000	-1000000
391,20	-12,07	19,32	1,925	-1000000	-1000000	-1000000
393,60	-12,16	19,36	1,926	-1000000	-1000000	-1000000
396,00	-12,26	19,40	1,926	-1000000	-1000000	-1000000
398,40	-12,35	19,44	1,927	-1000000	-1000000	-1000000
400,80	-12,15	19,48	1,918	-1000000	-1000000	-1000000
403,20	-12,26	19,52	1,923	-1000000	-1000000	-1000000
405,60	-12,37	19,56	1,924	-1000000	-1000000	-1000000
408,00	-12,47	19,60	1,924	-1000000	-1000000	-1000000
410,40	-12,56	19,64	1,925	-1000000	-1000000	-1000000
412,80	-12,66	19,68	1,925	-1000000	-1000000	-1000000
415,20	-12,75	19,72	1,925	-1000000	-1000000	-1000000
417,60	-12,85	19,76	1,925	-1000000	-1000000	-1000000
420,00	-12,94	19,80	1,926	-1000000	-1000000	-1000000
422,40	-13,03	19,84	1,926	-1000000	-1000000	-1000000
424,80	-13,13	19,88	1,926	-1000000	-1000000	-1000000
427,20	-0,00012	19,92	1,910	-1000000	-1000000	-1000000
429,60	-0,00518	19,96	1,912	-1000000	-1000000	-1000000
432,00	-0,00651	20,00	1,913	-1000000	-1000000	-1000000
434,40	-0,00976	20,04	1,914	-1000000	-1000000	-1000000
436,80	-0,00969	20,08	1,914	-1000000	-1000000	-1000000
439,20	-0,01078	20,12	1,914	-1000000	-1000000	-1000000
441,60	-0,00992	20,13	1,915	-1000000	-1000000	-1000000
443,00	-0,00951	20,13	1,915	-1000000	-1000000	-1000000