Folder: bmcs_beam/notebooks/experimental_tests/results/carbon_tensile_tests

Note: README.md
# Models of Brittle-Matrix-Composite Beams

[![Binder](https://mybinder.org/badge.svg)](https://mybinder.org/v2/gh/bmcs-group/bmcs_beam/master?urlpath=%2Fapps%2Fbeam_design/mq_profile.ipynb) - Start a simple example

File: F1.txt
Zeit  1 - Standardmessrate [s]	Kraft [kN]	Weg [mm]	DD1 [Prom]	PMX_1 CH 3-2 [µm/m]	PMX_1 CH 3-3 [mm]	PMX_1 CH 3-4 [mm]
0	-0,1387	0,000	0,000	-1000000	-1000000	-1000000
2,700	-0,1385	-0,00031	0,000	-1000000	-1000000	-1000000
5,400	-0,1385	0,00038	0,000	-1000000	-1000000	-1000000
8,100	-0,1388	-0,00020	0,000	-1000000	-1000000	-1000000
10,80	-0,1385	0,00064	0,000	-1000000	-1000000	-1000000
13,50	-0,1390	0,00036	0,000	-1000000	-1000000	-1000000
16,20	-0,1389	0,00021	0,000	-1000000	-1000000	-1000000
18,90	-0,1386	0,00097	0,00015	-1000000	-1000000	-1000000
21,60	-0,1383	0,000	0,00012	-1000000	-1000000	-1000000
24,30	-0,1389	0,00052	0,00018	-1000000	-1000000	-1000000
27,00	-0,1387	0,00024	0,00016	-1000000	-1000000	-1000000
29,70	-0,1418	0,00635	-0,00529	-1000000	-1000000	-1000000
32,40	-0,2087	0,05201	-0,09532	-1000000	-1000000	-1000000
35,10	-0,2614	0,09696	-0,1489	-1000000	-1000000	-1000000
37,80	-0,2810	0,1418	-0,1631	-1000000	-1000000	-1000000
40,50	-0,2852	0,1869	-0,1647	-1000000	-1000000	-1000000
43,20	-0,2945	0,2322	-0,1767	-1000000	-1000000	-1000000
45,90	-0,3165	0,2766	-0,1985	-1000000	-1000000	-1000000
48,60	-0,3258	0,3223	-0,2062	-1000000	-1000000	-1000000
51,30	-0,3298	0,3672	-0,2124	-1000000	-1000000	-1000000
54,00	-0,3486	0,4115	-0,2343	-1000000	-1000000	-1000000
56,70	-0,3937	0,4566	-0,2844	-1000000	-1000000	-1000000
59,40	-0,4448	0,5018	-0,3390	-1000000	-1000000	-1000000
62,10	-0,5117	0,5464	-0,4138	-1000000	-1000000	-1000000
64,80	-0,5871	0,5917	-0,4993	-1000000	-1000000	-1000000
67,50	-0,6548	0,6365	-0,5755	-1000000	-1000000	-1000000
70,20	-0,7199	0,6818	-0,6517	-1000000	-1000000	-1000000
72,90	-0,7963	0,7266	-0,7396	-1000000	-1000000	-1000000
75,60	-0,8572	0,7714	-0,8085	-1000000	-1000000	-1000000
78,30	-0,9378	0,8158	-0,9014	-1000000	-1000000	-1000000
81,00	-1,021	0,8606	-1,000	-1000000	-1000000	-1000000
83,70	-1,112	0,9057	-1,108	-1000000	-1000000	-1000000
86,40	-1,209	0,9503	-1,224	-1000000	-1000000	-1000000
89,10	-1,307	0,9951	-1,342	-1000000	-1000000	-1000000
91,80	-1,391	1,040	-1,443	-1000000	-1000000	-1000000
94,50	-1,494	1,085	-1,566	-1000000	-1000000	-1000000
97,20	-1,598	1,130	-1,690	-1000000	-1000000	-1000000
99,90	-1,682	1,176	-1,790	-1000000	-1000000	-1000000
102,60	-1,790	1,220	-1,919	-1000000	-1000000	-1000000
105,30	-1,901	1,265	-2,050	-1000000	-1000000	-1000000
108,00	-2,010	1,310	-2,181	-1000000	-1000000	-1000000
110,70	-2,097	1,356	-2,284	-1000000	-1000000	-1000000
113,40	-2,211	1,401	-2,417	-1000000	-1000000	-1000000
116,10	-2,325	1,446	-2,552	-1000000	-1000000	-1000000
118,80	-2,438	1,490	-2,685	-1000000	-1000000	-1000000
121,50	-2,551	1,536	-2,819	-1000000	-1000000	-1000000
124,20	-2,654	1,581	-2,937	-1000000	-1000000	-1000000
126,90	-2,757	1,627	-3,060	-1000000	-1000000	-1000000
129,60	-2,873	1,671	-3,196	-1000000	-1000000	-1000000
132,30	-2,989	1,716	-3,330	-1000000	-1000000	-1000000
135,00	-3,105	1,761	-3,465	-1000000	-1000000	-1000000
137,70	-3,220	1,805	-3,600	-1000000	-1000000	-1000000
140,40	-3,325	1,850	-3,722	-1000000	-1000000	-1000000
143,10	-3,441	1,896	-3,856	-1000000	-1000000	-1000000
145,80	-3,538	1,939	-3,969	-1000000	-1000000	-1000000
148,50	-3,657	1,985	-4,106	-1000000	-1000000	-1000000
151,20	-3,777	2,030	-4,244	-1000000	-1000000	-1000000
153,90	-3,896	2,074	-4,382	-1000000	-1000000	-1000000
156,60	-4,015	2,119	-4,519	-1000000	-1000000	-1000000
159,30	-4,135	2,165	-4,657	-1000000	-1000000	-1000000
162,00	-4,255	2,209	-4,793	-1000000	-1000000	-1000000
164,70	-4,363	2,255	-4,915	-1000000	-1000000	-1000000
167,40	-4,476	2,300	-5,044	-1000000	-1000000	-1000000
170,10	-4,602	2,345	-5,181	-1000000	-1000000	-1000000
172,80	-4,722	2,390	-5,318	-1000000	-1000000	-1000000
175,50	-4,844	2,435	-5,456	-1000000	-1000000	-1000000
178,20	-4,967	2,480	-5,592	-1000000	-1000000	-1000000
180,90	-5,088	2,525	-5,729	-1000000	-1000000	-1000000
183,60	-5,210	2,570	-5,867	-1000000	-1000000	-1000000
186,30	-5,332	2,614	-6,002	-1000000	-1000000	-1000000
189,00	-5,437	2,660	-6,119	-1000000	-1000000	-1000000
191,70	-5,560	2,705	-6,255	-1000000	-1000000	-1000000
194,40	-5,683	2,751	-6,393	-1000000	-1000000	-1000000
197,10	-5,806	2,795	-6,529	-1000000	-1000000	-1000000
199,80	-5,931	2,840	-6,666	-1000000	-1000000	-1000000
202,50	-6,053	2,885	-6,801	-1000000	-1000000	-1000000
205,20	-6,176	2,929	-6,937	-1000000	-1000000	-1000000
207,90	-6,297	2,974	-7,071	-1000000	-1000000	-1000000
210,60	-6,408	3,019	-7,193	-1000000	-1000000	-1000000
213,30	-6,525	3,065	-7,321	-1000000	-1000000	-1000000
216,00	-6,646	3,110	-7,453	-1000000	-1000000	-1000000
218,70	-6,767	3,155	-7,586	-1000000	-1000000	-1000000
221,40	-6,888	3,200	-7,718	-1000000	-1000000	-1000000
224,10	-7,010	3,245	-7,849	-1000000	-1000000	-1000000
226,80	-7,131	3,290	-7,982	-1000000	-1000000	-1000000
229,50	-7,252	3,335	-8,113	-1000000	-1000000	-1000000
232,20	-7,373	3,380	-8,244	-1000000	-1000000	-1000000
234,90	-7,481	3,426	-8,362	-1000000	-1000000	-1000000
237,60	-7,602	3,470	-8,491	-1000000	-1000000	-1000000
240,30	-7,727	3,515	-8,625	-1000000	-1000000	-1000000
243,00	-7,856	3,560	-8,765	-1000000	-1000000	-1000000
245,70	-7,986	3,604	-8,903	-1000000	-1000000	-1000000
248,40	-8,115	3,650	-9,043	-1000000	-1000000	-1000000
251,10	-8,244	3,694	-9,180	-1000000	-1000000	-1000000
253,80	-8,374	3,740	-9,320	-1000000	-1000000	-1000000
256,50	-8,504	3,784	-9,458	-1000000	-1000000	-1000000
259,20	-8,635	3,829	-9,596	-1000000	-1000000	-1000000
261,90	-8,722	3,861	-9,689	-1000000	-1000000	-1000000
264,60	-8,706	3,861	-9,672	-1000000	-1000000	-1000000
267,30	-8,694	3,861	-9,659	-1000000	-1000000	-1000000
270,00	-8,684	3,861	-9,649	-1000000	-1000000	-1000000
272,70	-8,674	3,861	-9,639	-1000000	-1000000	-1000000
275,40	-8,665	3,861	-9,630	-1000000	-1000000	-1000000
278,10	-8,658	3,861	-9,623	-1000000	-1000000	-1000000
280,80	-8,654	3,861	-9,615	-1000000	-1000000	-1000000
283,50	-8,645	3,861	-9,609	-1000000	-1000000	-1000000
286,20	-8,641	3,861	-9,603	-1000000	-1000000	-1000000
288,90	-8,633	3,861	-9,597	-1000000	-1000000	-1000000
291,60	-8,629	3,861	-9,591	-1000000	-1000000	-1000000
294,30	-8,625	3,861	-9,586	-1000000	-1000000	-1000000
297,00	-8,621	3,861	-9,581	-1000000	-1000000	-1000000
299,70	-8,614	3,861	-9,577	-1000000	-1000000	-1000000
302,40	-8,610	3,861	-9,573	-1000000	-1000000	-1000000
305,10	-8,605	3,862	-8,207	-1000000	-1000000	-1000000
307,80	-8,601	3,861	-3,917	-1000000	-1000000	-1000000
310,50	-8,597	3,861	-3,880	-1000000	-1000000	-1000000
313,20	-8,596	3,860	-3,869	-1000000	-1000000	-1000000
315,90	-8,592	3,861	-4,032	-1000000	-1000000	-1000000
318,60	-8,585	3,861	3,130	-1000000	-1000000	-1000000
321,30	-8,585	3,861	6,794	-1000000	-1000000	-1000000
324,00	-8,580	3,861	6,967	-1000000	-1000000	-1000000
326,70	-8,576	3,862	6,597	-1000000	-1000000	-1000000
329,40	-8,572	3,861	6,604	-1000000	-1000000	-1000000
332,10	-8,568	3,861	6,410	-1000000	-1000000	-1000000
334,80	-8,567	3,861	6,419	-1000000	-1000000	-1000000
337,50	-8,563	3,862	5,442	-1000000	-1000000	-1000000
340,20	-8,560	3,861	5,541	-1000000	-1000000	-1000000
342,90	-8,559	3,861	5,541	-1000000	-1000000	-1000000
345,60	-8,555	3,861	5,541	-1000000	-1000000	-1000000
348,30	-8,555	3,862	5,541	-1000000	-1000000	-1000000
351,00	-8,571	3,869	5,541	-1000000	-1000000	-1000000
353,70	-8,722	3,913	5,542	-1000000	-1000000	-1000000
356,40	-8,869	3,958	5,542	-1000000	-1000000	-1000000
359,10	-9,010	4,003	5,542	-1000000	-1000000	-1000000
361,80	-9,154	4,049	5,542	-1000000	-1000000	-1000000
364,50	-9,292	4,093	5,542	-1000000	-1000000	-1000000
367,20	-9,430	4,137	5,542	-1000000	-1000000	-1000000
369,90	-9,565	4,183	5,542	-1000000	-1000000	-1000000
372,60	-9,701	4,228	5,542	-1000000	-1000000	-1000000
375,30	-9,836	4,276	5,542	-1000000	-1000000	-1000000
378,00	-9,969	4,322	5,542	-1000000	-1000000	-1000000
380,70	-10,10	4,366	5,542	-1000000	-1000000	-1000000
383,40	-10,24	4,412	5,543	-1000000	-1000000	-1000000
386,10	-10,36	4,456	5,543	-1000000	-1000000	-1000000
388,80	-10,49	4,502	5,543	-1000000	-1000000	-1000000
391,50	-10,62	4,546	5,543	-1000000	-1000000	-1000000
394,20	-10,75	4,592	5,543	-1000000	-1000000	-1000000
396,90	-10,88	4,637	5,543	-1000000	-1000000	-1000000
399,60	-11,01	4,682	5,543	-1000000	-1000000	-1000000
402,30	-11,14	4,726	5,543	-1000000	-1000000	-1000000
405,00	-11,27	4,772	5,543	-1000000	-1000000	-1000000
407,70	-11,40	4,817	5,543	-1000000	-1000000	-1000000
410,40	-11,53	4,863	5,543	-1000000	-1000000	-1000000
413,10	-11,66	4,908	5,543	-1000000	-1000000	-1000000
415,80	-11,79	4,952	5,543	-1000000	-1000000	-1000000
418,50	-11,92	4,996	5,543	-1000000	-1000000	-1000000
421,20	-12,04	5,041	5,543	-1000000	-1000000	-1000000
423,90	-12,17	5,086	5,543	-1000000	-1000000	-1000000
426,60	-12,30	5,131	5,543	-1000000	-1000000	-1000000
429,30	-12,42	5,176	5,543	-1000000	-1000000	-1000000
432,00	-12,55	5,222	5,543	-1000000	-1000000	-1000000
434,70	-12,68	5,267	5,544	-1000000	-1000000	-1000000
437,40	-12,80	5,311	5,543	-1000000	-1000000	-1000000
440,10	-12,93	5,357	5,543	-1000000	-1000000	-1000000
442,80	-13,05	5,401	5,544	-1000000	-1000000	-1000000
445,50	-13,18	5,447	5,543	-1000000	-1000000	-1000000
448,20	-13,31	5,491	5,544	-1000000	-1000000	-1000000
450,90	-12,29	5,536	5,544	-1000000	-1000000	-1000000
453,60	-12,29	5,581	5,543	-1000000	-1000000	-1000000
456,30	-12,40	5,627	5,543	-1000000	-1000000	-1000000
459,00	-12,50	5,671	5,543	-1000000	-1000000	-1000000
461,70	-12,61	5,716	5,544	-1000000	-1000000	-1000000
464,40	-12,72	5,760	5,543	-1000000	-1000000	-1000000
467,10	-12,82	5,805	5,543	-1000000	-1000000	-1000000
469,80	-12,93	5,850	5,543	-1000000	-1000000	-1000000
472,50	-13,03	5,895	5,543	-1000000	-1000000	-1000000
475,20	-13,14	5,940	5,543	-1000000	-1000000	-1000000
477,90	-13,24	5,985	5,543	-1000000	-1000000	-1000000
480,60	-13,35	6,030	5,543	-1000000	-1000000	-1000000
483,30	-13,45	6,075	5,543	-1000000	-1000000	-1000000
486,00	-0,00015	6,120	5,543	-1000000	-1000000	-1000000
488,70	-0,00419	6,164	5,544	-1000000	-1000000	-1000000
491,40	-0,00635	6,210	5,544	-1000000	-1000000	-1000000
494,10	-0,00802	6,255	5,543	-1000000	-1000000	-1000000
496,80	-0,00866	6,299	5,544	-1000000	-1000000	-1000000
498,30	-0,00828	6,324	5,544	-1000000	-1000000	-1000000

File: F2.txt
Zeit  1 - Standardmessrate [s]	Kraft [kN]	Weg [mm]	DD1 [Prom]	PMX_1 CH 3-2 [µm/m]	PMX_1 CH 3-3 [mm]	PMX_1 CH 3-4 [mm]
0	-0,01863	0,00034	0,000	-1000000	-1000000	-1000000
6,000	-0,06095	0,05498	-0,08086	-1000000	-1000000	-1000000
12,00	-0,1448	0,1555	-0,2130	-1000000	-1000000	-1000000
18,00	-0,2405	0,2548	-0,3399	-1000000	-1000000	-1000000
24,00	-0,2651	0,3549	-0,3719	-1000000	-1000000	-1000000
30,00	-0,2854	0,4550	-0,3959	-1000000	-1000000	-1000000
36,00	-0,3343	0,5553	-0,4593	-1000000	-1000000	-1000000
42,00	-0,3819	0,6552	-0,5187	-1000000	-1000000	-1000000
48,00	-0,4934	0,7542	-0,6562	-1000000	-1000000	-1000000
54,00	-0,5884	0,8544	-0,7692	-1000000	-1000000	-1000000
60,00	-0,7654	0,9543	-0,9865	-1000000	-1000000	-1000000
66,00	-0,9587	1,055	-1,221	-1000000	-1000000	-1000000
72,00	-1,162	1,154	-1,467	-1000000	-1000000	-1000000
78,00	-1,374	1,254	-1,721	-1000000	-1000000	-1000000
84,00	-1,596	1,354	-1,987	-1000000	-1000000	-1000000
90,00	-1,821	1,454	-2,253	-1000000	-1000000	-1000000
96,00	-2,050	1,554	-2,525	-1000000	-1000000	-1000000
102,00	-2,283	1,654	-2,798	-1000000	-1000000	-1000000
108,00	-2,518	1,754	-3,073	-1000000	-1000000	-1000000
114,00	-2,758	1,854	-3,351	-1000000	-1000000	-1000000
120,00	-2,999	1,954	-3,630	-1000000	-1000000	-1000000
126,00	-3,243	2,054	-3,909	-1000000	-1000000	-1000000
132,00	-3,498	2,154	-4,198	-1000000	-1000000	-1000000
138,00	-3,752	2,254	-4,487	-1000000	-1000000	-1000000
144,00	-4,001	2,353	-4,768	-1000000	-1000000	-1000000
150,00	-4,249	2,454	-5,047	-1000000	-1000000	-1000000
156,00	-4,503	2,553	-5,330	-1000000	-1000000	-1000000
162,00	-4,760	2,654	-5,611	-1000000	-1000000	-1000000
168,00	-5,009	2,753	-5,886	-1000000	-1000000	-1000000
174,00	-5,271	2,853	-6,173	-1000000	-1000000	-1000000
180,00	-5,539	2,952	-6,466	-1000000	-1000000	-1000000
186,00	-5,777	3,053	-6,738	-1000000	-1000000	-1000000
192,00	-6,058	3,153	-7,044	-1000000	-1000000	-1000000
198,00	-6,340	3,252	-7,349	-1000000	-1000000	-1000000
204,00	-6,622	3,353	-7,653	-1000000	-1000000	-1000000
210,00	-6,680	3,452	-7,641	-1000000	-1000000	-1000000
216,00	-6,940	3,553	-7,920	-1000000	-1000000	-1000000
222,00	-7,208	3,652	-8,207	-1000000	-1000000	-1000000
228,00	-7,476	3,753	-8,491	-1000000	-1000000	-1000000
234,00	-7,745	3,853	-8,774	-1000000	-1000000	-1000000
240,00	-8,015	3,953	-9,059	-1000000	-1000000	-1000000
246,00	-8,285	4,052	-9,344	-1000000	-1000000	-1000000
252,00	-8,558	4,152	-9,628	-1000000	-1000000	-1000000
258,00	-8,612	4,184	-9,684	-1000000	-1000000	-1000000
264,00	-8,552	4,184	-28,47	-1000000	-1000000	-1000000
270,00	-8,520	4,184	1,094	-1000000	-1000000	-1000000
276,00	-8,503	4,183	0,8636	-1000000	-1000000	-1000000
282,00	-8,487	4,183	0,7224	-1000000	-1000000	-1000000
288,00	-8,475	4,184	0,7244	-1000000	-1000000	-1000000
294,00	-8,462	4,184	0,7258	-1000000	-1000000	-1000000
300,00	-8,454	4,184	0,7269	-1000000	-1000000	-1000000
306,00	-8,446	4,184	0,7278	-1000000	-1000000	-1000000
312,00	-8,493	4,200	0,7285	-1000000	-1000000	-1000000
318,00	-8,807	4,298	0,7292	-1000000	-1000000	-1000000
324,00	-9,108	4,399	0,7298	-1000000	-1000000	-1000000
330,00	-9,390	4,499	0,7301	-1000000	-1000000	-1000000
336,00	-9,666	4,599	0,7305	-1000000	-1000000	-1000000
342,00	-9,924	4,699	0,7308	-1000000	-1000000	-1000000
348,00	-10,18	4,799	0,7312	-1000000	-1000000	-1000000
354,00	-10,44	4,899	0,7315	-1000000	-1000000	-1000000
360,00	-10,71	4,999	0,7318	-1000000	-1000000	-1000000
366,00	-10,97	5,098	0,7321	-1000000	-1000000	-1000000
372,00	-11,22	5,198	0,7322	-1000000	-1000000	-1000000
378,00	-11,48	5,299	0,7325	-1000000	-1000000	-1000000
384,00	-11,73	5,403	0,7326	-1000000	-1000000	-1000000
390,00	-11,98	5,503	0,7329	-1000000	-1000000	-1000000
396,00	-12,23	5,603	0,7331	-1000000	-1000000	-1000000
402,00	-11,07	5,703	0,7332	-1000000	-1000000	-1000000
408,00	-11,42	5,804	0,7333	-1000000	-1000000	-1000000
414,00	-11,77	5,904	0,7336	-1000000	-1000000	-1000000
420,00	-12,10	6,003	0,7337	-1000000	-1000000	-1000000
426,00	-12,41	6,103	0,7339	-1000000	-1000000	-1000000
432,00	-12,70	6,202	0,7339	-1000000	-1000000	-1000000
438,00	-12,98	6,303	0,7340	-1000000	-1000000	-1000000
444,00	-13,25	6,402	0,7342	-1000000	-1000000	-1000000
450,00	-13,51	6,503	0,7342	-1000000	-1000000	-1000000
456,00	-13,71	6,602	0,7345	-1000000	-1000000	-1000000
462,00	-13,94	6,703	0,7345	-1000000	-1000000	-1000000
468,00	-14,16	6,801	0,7346	-1000000	-1000000	-1000000
474,00	-11,32	6,901	0,7348	-1000000	-1000000	-1000000
480,00	-11,70	7,001	0,7348	-1000000	-1000000	-1000000
486,00	-12,06	7,100	0,7350	-1000000	-1000000	-1000000
492,00	-12,40	7,200	0,7349	-1000000	-1000000	-1000000
498,00	-12,75	7,300	0,7352	-1000000	-1000000	-1000000
504,00	-13,08	7,400	0,7352	-1000000	-1000000	-1000000
510,00	-13,41	7,500	0,7353	-1000000	-1000000	-1000000
516,00	-13,75	7,600	0,7354	-1000000	-1000000	-1000000
522,00	-14,07	7,700	0,7356	-1000000	-1000000	-1000000
528,00	-14,36	7,799	0,7355	-1000000	-1000000	-1000000
534,00	-14,62	7,900	0,7355	-1000000	-1000000	-1000000
540,00	-14,86	7,999	0,7356	-1000000	-1000000	-1000000
546,00	-15,10	8,099	0,7358	-1000000	-1000000	-1000000
552,00	-3,405	8,198	0,7348	-1000000	-1000000	-1000000
558,00	-3,686	8,298	0,7348	-1000000	-1000000	-1000000
564,00	-3,947	8,399	0,7349	-1000000	-1000000	-1000000
570,00	-4,203	8,498	0,7348	-1000000	-1000000	-1000000
576,00	-4,459	8,599	0,7350	-1000000	-1000000	-1000000
582,00	-4,718	8,698	0,7351	-1000000	-1000000	-1000000
588,00	-4,974	8,798	0,7351	-1000000	-1000000	-1000000
594,00	-5,233	8,898	0,7352	-1000000	-1000000	-1000000
600,00	-5,501	8,998	0,7352	-1000000	-1000000	-1000000
606,00	-5,735	9,099	0,7353	-1000000	-1000000	-1000000
612,00	-5,985	9,198	0,7353	-1000000	-1000000	-1000000
618,00	-6,228	9,299	0,7354	-1000000	-1000000	-1000000
624,00	-6,474	9,398	0,7354	-1000000	-1000000	-1000000
630,00	-6,720	9,498	0,7355	-1000000	-1000000	-1000000
636,00	-6,970	9,598	0,7356	-1000000	-1000000	-1000000
642,00	-7,220	9,698	0,7356	-1000000	-1000000	-1000000
648,00	-7,472	9,798	0,7357	-1000000	-1000000	-1000000
654,00	-7,725	9,898	0,7357	-1000000	-1000000	-1000000
660,00	-7,979	9,999	0,7357	-1000000	-1000000	-1000000
666,00	-8,236	10,10	0,7357	-1000000	-1000000	-1000000
672,00	-8,493	10,20	0,7358	-1000000	-1000000	-1000000
678,00	-8,750	10,30	0,7359	-1000000	-1000000	-1000000
684,00	-9,008	10,40	0,7358	-1000000	-1000000	-1000000
690,00	-9,270	10,50	0,7359	-1000000	-1000000	-1000000
696,00	-9,529	10,60	0,7360	-1000000	-1000000	-1000000
702,00	-9,786	10,70	0,7359	-1000000	-1000000	-1000000
708,00	-10,04	10,80	0,7360	-1000000	-1000000	-1000000
714,00	-10,30	10,90	0,7360	-1000000	-1000000	-1000000
720,00	-10,55	11,00	0,7360	-1000000	-1000000	-1000000
726,00	-10,80	11,10	0,7360	-1000000	-1000000	-1000000
732,00	-11,05	11,20	0,7362	-1000000	-1000000	-1000000
738,00	-11,30	11,30	0,7363	-1000000	-1000000	-1000000
744,00	-11,54	11,40	0,7362	-1000000	-1000000	-1000000
750,00	-3,128	11,50	0,7360	-1000000	-1000000	-1000000
756,00	-3,426	11,60	0,7359	-1000000	-1000000	-1000000
762,00	-3,693	11,70	0,7360	-1000000	-1000000	-1000000
768,00	-3,949	11,80	0,7361	-1000000	-1000000	-1000000
774,00	-4,201	11,90	0,7360	-1000000	-1000000	-1000000
780,00	-4,454	12,00	0,7361	-1000000	-1000000	-1000000
786,00	-4,710	12,10	0,7361	-1000000	-1000000	-1000000
792,00	-4,963	12,20	0,7362	-1000000	-1000000	-1000000
798,00	-5,214	12,30	0,7361	-1000000	-1000000	-1000000
804,00	-5,482	12,40	0,7362	-1000000	-1000000	-1000000
810,00	-5,721	12,50	0,7362	-1000000	-1000000	-1000000
816,00	-5,970	12,60	0,7363	-1000000	-1000000	-1000000
822,00	-6,220	12,70	0,7363	-1000000	-1000000	-1000000
828,00	-6,470	12,80	0,7363	-1000000	-1000000	-1000000
834,00	-6,721	12,90	0,7364	-1000000	-1000000	-1000000
840,00	-6,971	13,00	0,7364	-1000000	-1000000	-1000000
846,00	-7,223	13,10	0,7365	-1000000	-1000000	-1000000
852,00	-7,476	13,20	0,7364	-1000000	-1000000	-1000000
858,00	-7,731	13,30	0,7365	-1000000	-1000000	-1000000
864,00	-7,985	13,40	0,7365	-1000000	-1000000	-1000000
870,00	-8,242	13,50	0,7365	-1000000	-1000000	-1000000
876,00	-8,501	13,60	0,7367	-1000000	-1000000	-1000000
882,00	-8,759	13,70	0,7366	-1000000	-1000000	-1000000
888,00	-9,017	13,80	0,7366	-1000000	-1000000	-1000000
894,00	-9,279	13,90	0,7369	-1000000	-1000000	-1000000
900,00	-9,535	14,00	0,7367	-1000000	-1000000	-1000000
906,00	-9,790	14,10	0,7367	-1000000	-1000000	-1000000
912,00	-10,04	14,20	0,7367	-1000000	-1000000	-1000000
918,00	-10,29	14,30	0,7368	-1000000	-1000000	-1000000
924,00	-10,53	14,40	0,7368	-1000000	-1000000	-1000000
930,00	-10,77	14,50	0,7369	-1000000	-1000000	-1000000
936,00	-11,00	14,60	0,7368	-1000000	-1000000	-1000000
942,00	-11,23	14,70	0,7369	-1000000	-1000000	-1000000
948,00	-11,47	14,80	0,7371	-1000000	-1000000	-1000000
954,00	-11,70	14,90	0,7370	-1000000	-1000000	-1000000
960,00	-11,93	15,00	0,7371	-1000000	-1000000	-1000000
966,00	-12,16	15,10	0,7370	-1000000	-1000000	-1000000
972,00	-12,39	15,20	0,7370	-1000000	-1000000	-1000000
978,00	-12,63	15,30	0,7372	-1000000	-1000000	-1000000
984,00	-12,86	15,40	0,7372	-1000000	-1000000	-1000000
990,00	-13,09	15,50	0,7372	-1000000	-1000000	-1000000
996,00	-13,33	15,60	0,7372	-1000000	-1000000	-1000000
1002,0	-13,56	15,70	0,7372	-1000000	-1000000	-1000000
1008,0	-12,28	15,80	0,7373	-1000000	-1000000	-1000000
1014,0	-12,60	15,90	0,7372	-1000000	-1000000	-1000000
1020,0	-12,91	16,00	0,7371	-1000000	-1000000	-1000000
1026,0	-12,54	16,10	0,7372	-1000000	-1000000	-1000000
1032,0	-8,999	16,20	0,7373	-1000000	-1000000	-1000000
1038,0	-9,262	16,30	0,7373	-1000000	-1000000	-1000000
1044,0	-9,517	16,40	0,7373	-1000000	-1000000	-1000000
1050,0	-9,764	16,50	0,7373	-1000000	-1000000	-1000000
1056,0	-9,997	16,60	0,7374	-1000000	-1000000	-1000000
1062,0	-10,23	16,70	0,7373	-1000000	-1000000	-1000000
1068,0	-10,45	16,80	0,7375	-1000000	-1000000	-1000000
1074,0	-10,62	16,90	0,7374	-1000000	-1000000	-1000000
1080,0	-0,00076	17,00	0,7360	-1000000	-1000000	-1000000
1086,0	-0,00557	17,10	0,7359	-1000000	-1000000	-1000000
1092,0	-0,00691	17,12	0,7361	-1000000	-1000000	-1000000
1096,8	-0,00955	17,12	0,7360	-1000000	-1000000	-1000000